participant,group,trial,label,no,item,exp,condition,cb,left,right,target,r1,r2,r3,r4,r5,r6,r7,question_rt,choice_rt,choice,chosen_type,mismatch,dominant,prop_left,prop_right,total_dwell,dwell_left,dwell_right,fixations_left,fixations_right,total_fixation,revisits_left,revisits_right,total_revisits,transitions,ffs,ffd,fvs,fvd,cxt
participant_001,b,34,experiment,2,1,1,focus,y,1b,1a,,477.0,444.0,428.0,380.0,409.0,412.0,469.0,,1595.0,right,A,False,right,0.0,1.0,1127.0,0.0,1127.0,0.0,6.0,6.0,0.0,5.0,5.0,0.0,right,66.0,right,1127.0,focus.A
participant_001,b,26,experiment,4,2,1,exclusive,y,2b,2a,2a,557.0,641.0,525.0,502.0,513.0,549.0,865.0,,1288.0,right,A,False,right,0.0,1.0,1156.0,0.0,1156.0,0.0,4.0,4.0,0.0,3.0,3.0,0.0,right,68.0,right,1156.0,exclusive.A
participant_001,b,49,experiment,9,3,1,contrastive,n,3a,3b,3b,499.0,434.0,466.0,404.0,424.0,557.0,701.0,,3059.0,left,A,True,left,0.504,0.496,2143.0,1080.0,1063.0,7.0,4.0,11.0,6.0,3.0,9.0,7.0,left,64.0,left,131.0,contrastive.A
participant_001,b,25,experiment,11,4,1,focus,n,4a,4b,,518.0,649.0,557.0,609.0,522.0,761.0,780.0,,1406.0,left,A,False,left,0.856,0.144,897.0,768.0,129.0,3.0,2.0,5.0,2.0,1.0,3.0,1.0,right,63.0,right,129.0,focus.A
participant_001,b,13,experiment,13,5,1,exclusive,n,5a,5b,5a,633.0,666.0,558.0,476.0,450.0,584.0,731.0,,2774.0,left,A,False,left,0.748,0.252,2105.0,1574.0,531.0,8.0,5.0,13.0,7.0,4.0,11.0,4.0,left,88.0,left,870.0,exclusive.A
participant_001,b,15,experiment,18,6,1,contrastive,y,6b,6a,6b,569.0,464.0,484.0,500.0,468.0,548.0,886.0,,2588.0,right,A,True,right,0.225,0.775,2048.0,460.0,1588.0,4.0,7.0,11.0,3.0,6.0,9.0,2.0,right,385.0,right,385.0,contrastive.A
participant_001,b,37,experiment,20,7,1,focus,y,7b,7a,,501.0,454.0,418.0,400.0,367.0,411.0,483.0,,1060.0,right,A,False,right,0.0,1.0,972.0,0.0,972.0,0.0,3.0,3.0,0.0,2.0,2.0,0.0,right,168.0,right,972.0,focus.A
participant_001,b,17,experiment,22,8,1,exclusive,y,8b,8a,8a,468.0,436.0,426.0,389.0,430.0,434.0,468.0,,1222.0,right,A,False,right,0.066,0.934,950.0,63.0,887.0,1.0,3.0,4.0,0.0,2.0,2.0,2.0,right,103.0,right,103.0,exclusive.A
participant_001,b,12,experiment,27,9,1,contrastive,n,9a,9b,9b,611.0,634.0,584.0,650.0,649.0,733.0,947.0,,4462.0,left,A,True,right,0.463,0.537,3561.0,1648.0,1913.0,8.0,13.0,21.0,7.0,12.0,19.0,7.0,right,416.0,right,550.0,contrastive.A
participant_001,b,21,experiment,29,10,1,focus,n,10a,10b,,570.0,629.0,505.0,531.0,481.0,500.0,587.0,,2117.0,left,A,False,right,0.492,0.508,1078.0,530.0,548.0,5.0,4.0,9.0,4.0,3.0,7.0,4.0,left,68.0,left,68.0,focus.A
participant_001,b,39,experiment,31,11,1,exclusive,n,11a,11b,11a,433.0,436.0,413.0,438.0,386.0,477.0,770.0,,1753.0,left,A,False,left,0.864,0.136,1396.0,1206.0,190.0,5.0,2.0,7.0,4.0,1.0,5.0,3.0,right,124.0,right,124.0,exclusive.A
participant_001,b,41,experiment,36,12,1,contrastive,y,12b,12a,12b,632.0,452.0,399.0,397.0,385.0,489.0,685.0,,2724.0,right,A,True,left,0.565,0.435,1118.6,632.0,486.6,3.0,3.0,6.0,2.0,2.0,4.0,2.0,right,157.0,right,157.0,contrastive.A
participant_001,b,14,experiment,38,13,1,focus,y,13b,13a,,500.0,467.0,433.0,535.0,516.0,620.0,945.0,,1436.0,right,A,False,right,0.388,0.612,1248.0,484.0,764.0,2.0,3.0,5.0,1.0,2.0,3.0,3.0,left,418.0,left,418.0,focus.A
participant_001,b,29,experiment,40,14,1,exclusive,y,14b,14a,14a,508.0,485.0,466.0,466.0,433.0,536.0,1042.0,,3493.0,right,A,False,right,0.26,0.74,1861.6,484.6,1377.0,4.0,8.0,12.0,3.0,7.0,10.0,2.0,right,62.0,right,62.0,exclusive.A
participant_001,b,46,experiment,45,15,1,contrastive,n,15a,15b,15b,379.0,382.0,369.0,369.0,348.0,448.0,1308.0,,4214.0,left,A,True,right,0.36,0.64,3171.0,1142.0,2029.0,9.0,10.0,19.0,8.0,9.0,17.0,9.0,right,66.0,right,66.0,contrastive.A
participant_001,b,18,experiment,47,16,1,focus,n,16a,16b,,544.0,431.0,368.0,404.0,381.0,397.0,856.0,,1814.0,left,A,False,left,0.735,0.265,1453.0,1068.0,385.0,4.0,2.0,6.0,3.0,1.0,4.0,3.0,right,252.0,right,252.0,focus.A
participant_001,b,23,experiment,49,17,1,exclusive,n,17a,17b,17a,492.0,469.0,461.0,469.0,436.0,497.0,690.0,,2108.0,left,A,False,left,0.529,0.471,1506.0,796.0,710.0,4.0,7.0,11.0,3.0,6.0,9.0,5.0,left,62.0,left,62.0,exclusive.A
participant_001,b,43,experiment,54,18,1,contrastive,y,18b,18a,18b,500.0,489.0,443.0,451.0,422.0,460.0,685.0,,8221.0,left,B,False,left,0.543,0.457,5484.0,2976.0,2508.0,20.0,13.0,33.0,19.0,12.0,31.0,9.0,right,191.0,right,307.0,contrastive.B
participant_002,a,36,experiment,1,1,1,exclusive,n,1a,1b,1a,559.0,532.0,556.0,696.0,584.0,756.0,906.0,,745.0,left,A,False,left,0.708,0.292,319.0,226.0,93.0,3.0,1.0,4.0,2.0,0.0,2.0,2.0,left,65.0,left,118.0,exclusive.A
participant_002,a,50,experiment,6,2,1,contrastive,y,2b,2a,2b,467.0,544.0,588.0,586.0,466.0,589.0,819.0,,1456.0,left,B,False,left,0.59,0.41,643.6,380.0,263.6,4.0,1.0,5.0,3.0,0.0,3.0,1.0,right,263.6,right,263.6,contrastive.B
participant_002,a,18,experiment,8,3,1,focus,y,3b,3a,,741.0,1083.0,963.0,1085.0,1014.0,1345.0,1202.0,,2035.0,right,A,False,right,0.368,0.632,1663.0,612.0,1051.0,1.0,5.0,6.0,0.0,4.0,4.0,1.0,right,671.0,right,1051.0,focus.A
participant_002,a,43,experiment,10,4,1,exclusive,y,4b,4a,4a,548.0,697.0,574.0,559.0,585.0,620.0,641.0,,1028.0,right,A,False,right,0.0,1.0,263.6,0.0,263.6,0.0,1.0,1.0,0.0,0.0,0.0,0.0,right,263.6,right,263.6,exclusive.A
participant_002,a,10,experiment,15,5,1,contrastive,n,5a,5b,5b,1239.0,947.0,1051.0,762.0,845.0,943.0,1159.0,,2306.0,left,A,True,right,0.309,0.691,1995.0,617.0,1378.0,3.0,4.0,7.0,2.0,3.0,5.0,3.0,right,88.0,right,564.0,contrastive.A
participant_002,a,13,experiment,17,6,1,focus,n,6a,6b,,636.0,745.0,770.0,780.0,787.0,949.0,1263.0,,1010.0,left,A,False,left,1.0,0.0,628.0,628.0,0.0,3.0,0.0,3.0,2.0,0.0,2.0,0.0,left,240.0,left,628.0,focus.A
participant_002,a,49,experiment,19,7,1,exclusive,n,7a,7b,7a,548.0,604.0,524.0,521.0,575.0,678.0,510.0,,831.0,left,A,False,left,0.767,0.233,618.0,474.0,144.0,1.0,1.0,2.0,0.0,0.0,0.0,1.0,right,144.0,right,144.0,exclusive.A
participant_002,a,47,experiment,24,8,1,contrastive,y,8b,8a,8b,540.0,578.0,557.0,596.0,520.0,700.0,652.0,,564.0,right,A,True,,,,1153.6604048582997,,,,,5.442914979757085,,,,2.0,,219.86008097165993,,415.19109311740897,contrastive.A
participant_002,a,35,experiment,26,9,1,focus,y,9b,9a,,634.0,553.0,536.0,623.0,551.0,706.0,820.0,,989.0,right,A,False,right,0.188,0.812,817.0,154.0,663.0,1.0,2.0,3.0,0.0,1.0,1.0,1.0,left,154.0,left,154.0,focus.A
participant_002,a,45,experiment,28,10,1,exclusive,y,10b,10a,10a,653.0,578.0,593.0,603.0,508.0,715.0,677.0,,807.0,right,A,False,right,0.0,1.0,637.0,0.0,637.0,0.0,1.0,1.0,0.0,0.0,0.0,0.0,right,637.0,right,637.0,exclusive.A
participant_002,a,42,experiment,33,11,1,contrastive,n,11a,11b,11b,625.0,566.0,725.0,602.0,681.0,816.0,744.0,,995.0,left,A,True,left,0.742,0.258,815.0,605.0,210.0,4.0,1.0,5.0,3.0,0.0,3.0,1.0,right,210.0,right,210.0,contrastive.A
participant_002,a,27,experiment,35,12,1,focus,n,12a,12b,,533.0,667.0,551.0,765.0,786.0,894.0,866.0,,1193.0,left,A,False,left,0.727,0.273,396.0,288.0,108.0,2.0,2.0,4.0,1.0,1.0,2.0,1.0,right,52.0,right,108.0,focus.A
participant_002,a,38,experiment,37,13,1,exclusive,n,13a,13b,13a,621.0,587.0,542.0,606.0,658.0,648.0,864.0,,902.0,left,A,False,right,0.0,1.0,527.0,0.0,527.0,0.0,2.0,2.0,0.0,1.0,1.0,0.0,right,408.0,right,527.0,exclusive.A
participant_002,a,31,experiment,42,14,1,contrastive,y,14b,14a,14b,1126.0,595.0,682.0,695.0,629.0,841.0,871.0,,6493.0,right,A,True,left,0.567,0.433,4896.6,2778.0,2118.6,11.0,10.0,21.0,10.0,9.0,19.0,14.0,left,76.0,left,76.0,contrastive.A
participant_002,a,29,experiment,44,15,1,focus,y,15b,15a,,541.0,689.0,642.0,728.0,710.0,831.0,834.0,,649.0,right,A,False,right,0.0,1.0,109.0,0.0,109.0,0.0,2.0,2.0,0.0,1.0,1.0,0.0,right,52.0,right,109.0,focus.A
participant_002,a,40,experiment,46,16,1,exclusive,y,16b,16a,16a,645.0,570.0,532.0,625.0,652.0,628.0,744.0,,656.0,right,A,False,left,0.775,0.225,444.0,344.0,100.0,2.0,1.0,3.0,1.0,0.0,1.0,2.0,left,96.0,left,96.0,exclusive.A
participant_002,a,34,experiment,51,17,1,contrastive,n,17a,17b,17b,637.0,572.0,673.0,646.0,693.0,705.0,984.0,,823.0,left,A,True,left,0.519,0.481,572.0,297.0,275.0,2.0,2.0,4.0,1.0,1.0,2.0,2.0,left,56.0,left,56.0,contrastive.A
participant_002,a,21,experiment,53,18,1,focus,n,18a,18b,,650.0,681.0,1042.0,832.0,961.0,1063.0,1575.0,,5059.0,left,A,False,right,0.13,0.87,2533.6,329.6,2204.0,2.0,8.0,10.0,1.0,7.0,8.0,3.0,right,433.0,right,1019.0,focus.A
participant_003,c,33,experiment,3,1,1,contrastive,n,1a,1b,1b,483.0,396.0,428.0,405.0,402.0,612.0,481.0,,1130.0,right,B,False,right,0.0,1.0,820.0,0.0,820.0,0.0,2.0,2.0,0.0,1.0,1.0,0.0,right,633.0,right,820.0,contrastive.B
participant_003,c,36,experiment,5,2,1,focus,n,2a,2b,,440.0,342.0,384.0,444.0,431.0,484.0,476.0,,1052.0,left,A,False,left,1.0,0.0,828.0,828.0,0.0,4.0,0.0,4.0,3.0,0.0,3.0,0.0,left,57.0,left,828.0,focus.A
participant_003,c,34,experiment,7,3,1,exclusive,n,3a,3b,3a,473.0,393.0,366.0,443.0,408.0,888.0,383.0,,1006.0,left,A,False,left,1.0,0.0,885.0,885.0,0.0,2.0,0.0,2.0,1.0,0.0,1.0,0.0,left,251.0,left,885.0,exclusive.A
participant_003,c,47,experiment,12,4,1,contrastive,y,4b,4a,4b,449.0,346.0,370.0,468.0,373.0,349.0,434.0,,1091.0,left,B,False,left,1.0,0.0,660.0,660.0,0.0,2.0,0.0,2.0,1.0,0.0,1.0,0.0,left,127.0,left,660.0,contrastive.B
participant_003,c,27,experiment,14,5,1,focus,y,5b,5a,,512.0,539.0,449.0,383.0,434.0,397.0,576.0,,1985.0,right,A,False,left,0.63,0.37,1553.0,978.0,575.0,4.0,1.0,5.0,3.0,0.0,3.0,1.0,left,341.0,left,978.0,focus.A
participant_003,c,17,experiment,16,6,1,exclusive,y,6b,6a,6a,502.0,501.0,492.0,481.0,445.0,541.0,456.0,,1475.0,right,A,False,right,0.104,0.896,820.0,85.0,735.0,1.0,2.0,3.0,0.0,1.0,1.0,2.0,right,85.0,right,85.0,exclusive.A
participant_003,c,49,experiment,21,7,1,contrastive,n,7a,7b,7b,458.0,311.0,329.0,326.0,301.0,353.0,380.0,,1072.0,right,B,False,right,0.303,0.697,749.0,227.0,522.0,3.0,1.0,4.0,2.0,0.0,2.0,1.0,left,90.0,left,227.0,contrastive.B
participant_003,c,12,experiment,23,8,1,focus,n,8a,8b,,748.0,669.0,468.0,504.0,546.0,604.0,505.0,,1880.0,left,A,False,left,0.796,0.204,692.0,551.0,141.0,4.0,1.0,5.0,3.0,0.0,3.0,2.0,left,162.0,left,162.0,focus.A
participant_003,c,40,experiment,25,9,1,exclusive,n,9a,9b,9a,481.0,397.0,325.0,494.0,417.0,404.0,475.0,,1227.0,left,A,False,left,0.738,0.262,1034.0,763.0,271.0,2.0,2.0,4.0,1.0,1.0,2.0,2.0,left,51.0,left,51.0,exclusive.A
participant_003,c,43,experiment,30,10,1,contrastive,y,10b,10a,10b,455.0,392.0,351.0,489.0,439.0,413.0,800.0,,1240.0,left,B,False,left,1.0,0.0,1103.0,1103.0,0.0,2.0,0.0,2.0,1.0,0.0,1.0,0.0,left,352.0,left,1103.0,contrastive.B
participant_003,c,22,experiment,32,11,1,focus,y,11b,11a,,434.0,549.0,479.0,435.0,492.0,728.0,582.0,,1453.0,right,A,False,right,0.0,1.0,1356.0,0.0,1356.0,0.0,3.0,3.0,0.0,2.0,2.0,0.0,right,180.0,right,1356.0,focus.A
participant_003,c,10,experiment,34,12,1,exclusive,y,12b,12a,12a,848.0,913.0,1243.0,988.0,1078.0,1042.0,2302.0,,1895.0,right,A,False,right,0.173,0.827,838.6,145.0,693.6,1.0,3.0,4.0,0.0,2.0,2.0,1.0,left,145.0,left,145.0,exclusive.A
participant_003,c,20,experiment,39,13,1,contrastive,n,13a,13b,13b,556.0,465.0,464.0,481.0,414.0,397.0,865.0,,5265.0,right,B,False,right,0.282,0.718,2698.6,761.0,1937.6,5.0,6.0,11.0,4.0,5.0,9.0,7.0,left,129.0,left,129.0,contrastive.B
participant_003,c,29,experiment,41,14,1,focus,n,14a,14b,,462.0,381.0,332.0,435.0,435.0,684.0,1017.0,,4251.0,left,A,False,left,0.871,0.129,2427.6,2114.0,313.6,6.0,2.0,8.0,5.0,1.0,6.0,1.0,right,50.0,right,313.6,focus.A
participant_003,c,15,experiment,43,15,1,exclusive,n,15a,15b,15a,701.0,553.0,593.0,669.0,523.0,935.0,636.0,,2900.0,left,A,False,right,0.431,0.569,1591.6,685.6,906.0,5.0,5.0,10.0,4.0,4.0,8.0,8.0,left,138.0,left,138.0,exclusive.A
participant_003,c,25,experiment,48,16,1,contrastive,y,16b,16a,16b,451.0,398.0,458.0,467.0,448.0,445.0,918.0,,1263.0,left,B,False,left,1.0,0.0,1057.0,1057.0,0.0,3.0,0.0,3.0,2.0,0.0,2.0,0.0,left,212.0,left,1057.0,contrastive.B
participant_003,c,24,experiment,50,17,1,focus,y,17b,17a,,423.0,393.0,350.0,405.0,1088.0,780.0,1119.0,,1520.0,right,A,False,right,0.4,0.6,1260.0,504.0,756.0,3.0,3.0,6.0,2.0,2.0,4.0,2.0,right,133.0,right,133.0,focus.A
participant_003,c,38,experiment,52,18,1,exclusive,y,18b,18a,18a,448.0,348.0,1172.0,443.0,536.0,494.0,446.0,,6264.0,right,A,False,right,0.266,0.734,1980.7,527.2,1453.6,2.0,7.0,9.0,1.0,6.0,7.0,4.0,right,261.0,right,261.0,exclusive.A
participant_004,a,36,experiment,1,1,1,exclusive,n,1a,1b,1a,520.0,562.0,546.0,589.0,532.0,649.0,561.0,,1476.0,left,A,False,left,0.708,0.292,1130.0,800.0,330.0,4.0,2.0,6.0,3.0,1.0,4.0,1.0,right,197.0,right,330.0,exclusive.A
participant_004,a,50,experiment,6,2,1,contrastive,y,2b,2a,2b,532.0,504.0,508.0,518.0,520.0,525.0,453.0,,1140.0,left,B,False,left,1.0,0.0,935.0,935.0,0.0,3.0,0.0,3.0,2.0,0.0,2.0,0.0,left,92.0,left,935.0,contrastive.B
participant_004,a,18,experiment,8,3,1,focus,y,3b,3a,,538.0,610.0,602.0,670.0,678.0,762.0,606.0,,4601.0,right,A,False,right,0.46,0.54,2976.6,1368.0,1608.6,6.0,6.0,12.0,5.0,5.0,10.0,7.0,left,99.0,left,358.0,focus.A
participant_004,a,43,experiment,10,4,1,exclusive,y,4b,4a,4a,474.0,776.0,513.0,684.0,627.0,593.0,548.0,,1136.0,right,A,False,right,0.375,0.625,421.6,158.0,263.6,2.0,1.0,3.0,1.0,0.0,1.0,1.0,left,91.0,left,158.0,exclusive.A
participant_004,a,10,experiment,15,5,1,contrastive,n,5a,5b,5b,841.0,871.0,776.0,762.0,812.0,1133.0,1083.0,,3480.0,left,A,True,right,0.443,0.557,1832.6,811.0,1021.6,5.0,5.0,10.0,4.0,4.0,8.0,4.0,left,150.0,left,150.0,contrastive.A
participant_004,a,13,experiment,17,6,1,focus,n,6a,6b,,516.0,783.0,675.0,648.0,754.0,739.0,552.0,,3011.0,left,A,False,left,0.744,0.256,1748.6,1300.6,448.0,10.0,3.0,13.0,9.0,2.0,11.0,2.0,left,66.0,left,683.6,focus.A
participant_004,a,49,experiment,19,7,1,exclusive,n,7a,7b,7a,544.0,597.0,536.0,604.0,548.0,663.0,922.0,,1384.0,left,A,False,left,1.0,0.0,992.0,992.0,0.0,4.0,0.0,4.0,3.0,0.0,3.0,0.0,left,66.0,left,992.0,exclusive.A
participant_004,a,47,experiment,24,8,1,contrastive,y,8b,8a,8b,495.0,502.0,500.0,464.0,524.0,463.0,585.0,,1182.0,left,B,False,left,0.92,0.08,845.0,777.0,68.0,5.0,1.0,6.0,4.0,0.0,4.0,2.0,left,64.0,left,64.0,contrastive.B
participant_004,a,35,experiment,26,9,1,focus,y,9b,9a,,586.0,660.0,552.0,620.0,681.0,668.0,800.0,,1120.0,right,A,False,right,0.064,0.936,1066.0,68.0,998.0,1.0,2.0,3.0,0.0,1.0,1.0,1.0,left,68.0,left,68.0,focus.A
participant_004,a,45,experiment,28,10,1,exclusive,y,10b,10a,10a,1024.0,532.0,606.0,533.0,561.0,588.0,543.0,,1377.0,right,A,False,right,0.0,1.0,1309.0,0.0,1309.0,0.0,3.0,3.0,0.0,2.0,2.0,0.0,right,630.0,right,1309.0,exclusive.A
participant_004,a,42,experiment,33,11,1,contrastive,n,11a,11b,11b,498.0,614.0,742.0,581.0,548.0,650.0,553.0,,1027.0,right,B,False,right,0.0,1.0,728.0,0.0,728.0,0.0,4.0,4.0,0.0,3.0,3.0,0.0,right,67.0,right,728.0,contrastive.B
participant_004,a,27,experiment,35,12,1,focus,n,12a,12b,,589.0,600.0,491.0,613.0,607.0,745.0,626.0,,1088.0,left,A,False,left,0.686,0.314,795.0,545.0,250.0,4.0,1.0,5.0,3.0,0.0,3.0,1.0,right,250.0,right,250.0,focus.A
participant_004,a,38,experiment,37,13,1,exclusive,n,13a,13b,13a,583.0,606.0,502.0,515.0,571.0,662.0,579.0,,1452.0,left,A,False,left,1.0,0.0,771.0,771.0,0.0,2.0,0.0,2.0,1.0,0.0,1.0,0.0,left,62.0,left,771.0,exclusive.A
participant_004,a,31,experiment,42,14,1,contrastive,y,14b,14a,14b,566.0,622.0,911.0,604.0,566.0,673.0,988.0,,3852.0,left,B,False,left,0.669,0.331,2880.0,1926.0,954.0,9.0,4.0,13.0,8.0,3.0,11.0,5.0,right,266.0,right,266.0,contrastive.B
participant_004,a,29,experiment,44,15,1,focus,y,15b,15a,,600.0,859.0,668.0,641.0,657.0,743.0,667.0,,1619.0,right,A,False,right,0.43,0.57,1315.0,565.0,750.0,2.0,2.0,4.0,1.0,1.0,2.0,1.0,left,132.0,left,565.0,focus.A
participant_004,a,40,experiment,46,16,1,exclusive,y,16b,16a,16a,491.0,651.0,616.0,597.0,535.0,633.0,801.0,,1138.0,right,A,False,right,0.219,0.781,842.0,184.0,658.0,1.0,2.0,3.0,0.0,1.0,1.0,1.0,left,184.0,left,184.0,exclusive.A
participant_004,a,34,experiment,51,17,1,contrastive,n,17a,17b,17b,715.0,745.0,859.0,861.0,781.0,718.0,2420.0,,1178.0,left,A,True,left,0.861,0.139,912.0,785.0,127.0,1.0,1.0,2.0,0.0,0.0,0.0,1.0,right,127.0,right,127.0,contrastive.A
participant_004,a,21,experiment,53,18,1,focus,n,18a,18b,,494.0,599.0,599.0,520.0,537.0,586.0,621.0,,1185.0,left,A,False,left,0.872,0.128,977.0,852.0,125.0,1.0,2.0,3.0,0.0,1.0,1.0,1.0,right,58.0,right,125.0,focus.A
participant_005,a,36,experiment,1,1,1,exclusive,n,1a,1b,1a,483.0,411.0,433.0,511.0,520.0,726.0,651.0,,2434.0,left,A,False,left,0.656,0.344,1816.0,1192.0,624.0,3.0,4.0,7.0,2.0,3.0,5.0,1.0,right,80.0,right,624.0,exclusive.A
participant_005,a,50,experiment,6,2,1,contrastive,y,2b,2a,2b,409.0,368.0,328.0,372.0,338.0,320.0,341.0,,1971.0,left,B,False,left,0.931,0.069,1317.0,1226.0,91.0,6.0,1.0,7.0,5.0,0.0,5.0,1.0,right,91.0,right,91.0,contrastive.B
participant_005,a,18,experiment,8,3,1,focus,y,3b,3a,,426.0,524.0,259.0,334.0,338.0,404.0,463.0,,2060.0,right,A,False,right,0.357,0.643,1446.0,516.0,930.0,4.0,5.0,9.0,3.0,4.0,7.0,1.0,left,249.0,left,516.0,focus.A
participant_005,a,43,experiment,10,4,1,exclusive,y,4b,4a,4a,476.0,364.0,425.0,523.0,443.0,493.0,792.0,,1837.0,right,A,False,right,0.405,0.595,716.6,290.0,426.6,2.0,2.0,4.0,1.0,1.0,2.0,1.0,left,211.0,left,290.0,exclusive.A
participant_005,a,10,experiment,15,5,1,contrastive,n,5a,5b,5b,495.0,451.0,453.0,440.0,462.0,491.0,708.0,,1497.0,right,B,False,right,0.0,1.0,961.0,0.0,961.0,0.0,3.0,3.0,0.0,2.0,2.0,0.0,right,153.0,right,961.0,contrastive.B
participant_005,a,13,experiment,17,6,1,focus,n,6a,6b,,454.0,368.0,369.0,459.0,464.0,393.0,618.0,,1444.0,left,A,False,left,1.0,0.0,1113.0,1113.0,0.0,3.0,0.0,3.0,2.0,0.0,2.0,0.0,left,80.0,left,1113.0,focus.A
participant_005,a,49,experiment,19,7,1,exclusive,n,7a,7b,7a,422.0,338.0,334.0,351.0,431.0,452.0,454.0,,1754.0,left,A,False,left,0.816,0.184,417.6,340.6,77.0,2.0,1.0,3.0,1.0,0.0,1.0,1.0,right,77.0,right,77.0,exclusive.A
participant_005,a,47,experiment,24,8,1,contrastive,y,8b,8a,8b,409.0,365.0,395.0,390.0,402.0,395.0,403.0,,1985.0,left,B,False,left,0.942,0.058,1523.0,1435.0,88.0,4.0,1.0,5.0,3.0,0.0,3.0,2.0,left,51.0,left,51.0,contrastive.B
participant_005,a,35,experiment,26,9,1,focus,y,9b,9a,,411.0,289.0,576.0,21.0,1232.0,474.0,951.0,,1939.0,right,A,False,right,0.308,0.692,912.6,281.0,631.6,3.0,4.0,7.0,2.0,3.0,5.0,4.0,right,123.0,right,282.0,focus.A
participant_005,a,45,experiment,28,10,1,exclusive,y,10b,10a,10a,550.0,414.0,464.0,414.0,416.0,410.0,443.0,,2207.0,right,A,False,right,0.0,1.0,1580.0,0.0,1580.0,0.0,4.0,4.0,0.0,3.0,3.0,0.0,right,135.0,right,1580.0,exclusive.A
participant_005,a,42,experiment,33,11,1,contrastive,n,11a,11b,11b,484.0,471.0,443.0,463.0,441.0,435.0,623.0,,1488.0,right,B,False,right,0.0,1.0,428.6,0.0,428.6,0.0,3.0,3.0,0.0,2.0,2.0,0.0,right,82.0,right,428.6,contrastive.B
participant_005,a,27,experiment,35,12,1,focus,n,12a,12b,,545.0,316.0,313.0,322.0,309.0,335.0,554.0,,1671.0,left,A,False,left,0.74,0.26,1094.0,810.0,284.0,4.0,3.0,7.0,3.0,2.0,5.0,2.0,left,94.0,left,94.0,focus.A
participant_005,a,38,experiment,37,13,1,exclusive,n,13a,13b,13a,475.0,353.0,325.0,591.0,490.0,493.0,630.0,,2297.0,left,A,False,left,0.596,0.404,1676.0,999.0,677.0,4.0,1.0,5.0,3.0,0.0,3.0,2.0,left,81.0,left,81.0,exclusive.A
participant_005,a,31,experiment,42,14,1,contrastive,y,14b,14a,14b,436.0,362.0,1127.0,464.0,408.0,861.0,895.0,,3260.0,left,B,False,left,0.766,0.234,2098.6,1608.0,490.6,6.0,3.0,9.0,5.0,2.0,7.0,3.0,right,263.6,right,263.6,contrastive.B
participant_005,a,29,experiment,44,15,1,focus,y,15b,15a,,438.0,348.0,384.0,401.0,384.0,453.0,430.0,,1879.0,right,A,False,right,0.23,0.77,1588.0,365.0,1223.0,2.0,4.0,6.0,1.0,3.0,4.0,1.0,left,80.0,left,365.0,focus.A
participant_005,a,40,experiment,46,16,1,exclusive,y,16b,16a,16a,429.0,358.0,373.0,414.0,432.0,475.0,762.0,,1904.0,right,A,False,left,0.579,0.421,625.6,362.0,263.6,2.0,1.0,3.0,1.0,0.0,1.0,1.0,left,143.0,left,362.0,exclusive.A
participant_005,a,34,experiment,51,17,1,contrastive,n,17a,17b,17b,436.0,355.0,475.0,471.0,452.0,484.0,587.0,,5226.0,right,B,False,right,0.194,0.806,1612.2,312.0,1300.2,1.0,6.0,7.0,0.0,5.0,5.0,2.0,right,51.0,right,504.6,contrastive.B
participant_005,a,21,experiment,53,18,1,focus,n,18a,18b,,490.0,376.0,324.0,379.0,315.0,377.0,545.0,,1921.0,left,A,False,left,0.937,0.063,1549.0,1452.0,97.0,3.0,1.0,4.0,2.0,0.0,2.0,1.0,right,97.0,right,97.0,focus.A
participant_006,a,36,experiment,1,1,1,exclusive,n,1a,1b,1a,596.0,693.0,604.0,748.0,588.0,627.0,660.0,,1135.0,left,A,False,left,0.745,0.255,912.0,679.0,233.0,2.0,3.0,5.0,1.0,2.0,3.0,1.0,right,67.0,right,233.0,exclusive.A
participant_006,a,50,experiment,6,2,1,contrastive,y,2b,2a,2b,667.0,618.0,629.0,675.0,555.0,579.0,496.0,,881.0,left,B,False,left,0.843,0.157,778.0,656.0,122.0,2.0,1.0,3.0,1.0,0.0,1.0,1.0,right,122.0,right,122.0,contrastive.B
participant_006,a,18,experiment,8,3,1,focus,y,3b,3a,,681.0,970.0,868.0,759.0,749.0,1080.0,1282.0,,1757.0,right,A,False,right,0.377,0.623,1325.0,499.0,826.0,4.0,5.0,9.0,3.0,4.0,7.0,5.0,left,119.0,left,119.0,focus.A
participant_006,a,43,experiment,10,4,1,exclusive,y,4b,4a,4a,762.0,1001.0,586.0,650.0,603.0,782.0,684.0,,1335.0,right,A,False,right,0.287,0.713,1214.0,348.0,866.0,1.0,4.0,5.0,0.0,3.0,3.0,2.0,right,198.0,right,311.0,exclusive.A
participant_006,a,10,experiment,15,5,1,contrastive,n,5a,5b,5b,907.0,957.0,824.0,770.0,993.0,1297.0,1467.0,,4409.0,right,B,False,left,0.667,0.333,1670.0,1114.0,556.0,5.0,6.0,11.0,4.0,5.0,9.0,6.0,left,237.0,left,237.0,contrastive.B
participant_006,a,13,experiment,17,6,1,focus,n,6a,6b,,839.0,1156.0,1357.0,1274.0,918.0,940.0,884.0,,1976.0,left,A,False,left,1.0,0.0,1216.0,1216.0,0.0,3.0,0.0,3.0,2.0,0.0,2.0,0.0,left,729.0,left,1216.0,focus.A
participant_006,a,49,experiment,19,7,1,exclusive,n,7a,7b,7a,452.0,650.0,661.0,1003.0,623.0,621.0,536.0,,842.0,left,A,False,left,0.812,0.188,325.0,264.0,61.0,2.0,1.0,3.0,1.0,0.0,1.0,1.0,left,89.0,left,264.0,exclusive.A
participant_006,a,47,experiment,24,8,1,contrastive,y,8b,8a,8b,515.0,552.0,732.0,625.0,516.0,532.0,489.0,,1037.0,left,B,False,left,0.688,0.312,922.0,634.0,288.0,2.0,1.0,3.0,1.0,0.0,1.0,1.0,right,288.0,right,288.0,contrastive.B
participant_006,a,35,experiment,26,9,1,focus,y,9b,9a,,532.0,748.0,652.0,880.0,632.0,622.0,839.0,,1114.0,right,A,False,right,0.296,0.704,925.0,274.0,651.0,2.0,3.0,5.0,1.0,2.0,3.0,4.0,right,66.0,right,66.0,focus.A
participant_006,a,45,experiment,28,10,1,exclusive,y,10b,10a,10a,582.0,923.0,643.0,821.0,789.0,850.0,655.0,,1194.0,right,A,False,right,0.0,1.0,527.0,0.0,527.0,0.0,3.0,3.0,0.0,2.0,2.0,0.0,right,169.0,right,527.0,exclusive.A
participant_006,a,42,experiment,33,11,1,contrastive,n,11a,11b,11b,518.0,675.0,946.0,718.0,594.0,866.0,751.0,,3635.0,right,B,False,right,0.388,0.612,2900.0,1126.0,1774.0,6.0,11.0,17.0,5.0,10.0,15.0,10.0,right,128.0,right,183.0,contrastive.B
participant_006,a,27,experiment,35,12,1,focus,n,12a,12b,,654.0,669.0,1015.0,958.0,891.0,1415.0,898.0,,1325.0,left,A,False,left,0.813,0.187,603.6,490.6,113.0,2.0,1.0,3.0,1.0,0.0,1.0,2.0,left,263.6,left,263.6,focus.A
participant_006,a,38,experiment,37,13,1,exclusive,n,13a,13b,13a,561.0,672.0,565.0,755.0,835.0,693.0,726.0,,1263.0,left,A,False,left,1.0,0.0,855.0,855.0,0.0,1.0,0.0,1.0,0.0,0.0,0.0,0.0,left,855.0,left,855.0,exclusive.A
participant_006,a,31,experiment,42,14,1,contrastive,y,14b,14a,14b,563.0,970.0,1067.0,718.0,735.0,1099.0,1128.0,,2738.0,left,B,False,left,0.668,0.332,1570.6,1048.6,522.0,2.0,5.0,7.0,1.0,4.0,5.0,3.0,right,66.0,right,464.0,contrastive.B
participant_006,a,29,experiment,44,15,1,focus,y,15b,15a,,731.0,891.0,838.0,793.0,676.0,940.0,1200.0,,1481.0,right,A,False,right,0.0,1.0,1207.0,0.0,1207.0,0.0,5.0,5.0,0.0,4.0,4.0,0.0,right,132.0,right,1207.0,focus.A
participant_006,a,40,experiment,46,16,1,exclusive,y,16b,16a,16a,511.0,565.0,521.0,643.0,518.0,629.0,592.0,,901.0,right,A,False,right,0.092,0.908,644.0,59.0,585.0,1.0,2.0,3.0,0.0,1.0,1.0,2.0,right,60.0,right,60.0,exclusive.A
participant_006,a,34,experiment,51,17,1,contrastive,n,17a,17b,17b,1297.0,731.0,1394.0,872.0,1451.0,952.0,1124.0,,2421.0,right,B,False,right,0.333,0.667,1364.6,454.0,910.6,2.0,5.0,7.0,1.0,4.0,5.0,4.0,right,58.0,right,507.0,contrastive.B
participant_006,a,21,experiment,53,18,1,focus,n,18a,18b,,633.0,714.0,713.0,976.0,727.0,897.0,918.0,,2690.0,left,A,False,left,0.669,0.331,2085.0,1395.0,690.0,6.0,5.0,11.0,5.0,4.0,9.0,8.0,left,71.0,left,71.0,focus.A
participant_007,b,34,experiment,2,1,1,focus,y,1b,1a,,470.0,439.0,422.0,415.0,377.0,598.0,464.0,,731.0,right,A,False,right,0.0,1.0,445.0,0.0,445.0,0.0,3.0,3.0,0.0,2.0,2.0,0.0,right,187.0,right,445.0,focus.A
participant_007,b,26,experiment,4,2,1,exclusive,y,2b,2a,2a,475.0,442.0,399.0,469.0,476.0,517.0,486.0,,1677.0,right,A,False,right,0.334,0.666,1121.0,374.0,747.0,4.0,7.0,11.0,3.0,6.0,9.0,6.0,left,189.0,left,189.0,exclusive.A
participant_007,b,49,experiment,9,3,1,contrastive,n,3a,3b,3b,532.0,393.0,387.0,392.0,369.0,437.0,401.0,,812.0,right,B,False,right,0.0,1.0,454.0,0.0,454.0,0.0,3.0,3.0,0.0,2.0,2.0,0.0,right,229.0,right,454.0,contrastive.B
participant_007,b,25,experiment,11,4,1,focus,n,4a,4b,,514.0,464.0,429.0,582.0,527.0,630.0,512.0,,936.0,left,A,False,left,1.0,0.0,845.0,845.0,0.0,2.0,0.0,2.0,1.0,0.0,1.0,0.0,left,733.0,left,845.0,focus.A
participant_007,b,13,experiment,13,5,1,exclusive,n,5a,5b,5a,611.0,813.0,529.0,514.0,449.0,550.0,698.0,,1595.0,left,A,False,left,0.954,0.046,1198.0,1143.0,55.0,5.0,1.0,6.0,4.0,0.0,4.0,2.0,left,122.0,left,514.0,exclusive.A
participant_007,b,15,experiment,18,6,1,contrastive,y,6b,6a,6b,611.0,567.0,858.0,502.0,492.0,501.0,463.0,,826.0,left,B,False,left,0.615,0.385,465.0,286.0,179.0,1.0,1.0,2.0,0.0,0.0,0.0,1.0,right,179.0,right,179.0,contrastive.B
participant_007,b,37,experiment,20,7,1,focus,y,7b,7a,,400.0,408.0,347.0,403.0,379.0,337.0,328.0,,672.0,right,A,False,right,0.255,0.745,646.0,165.0,481.0,1.0,2.0,3.0,0.0,1.0,1.0,2.0,right,190.0,right,190.0,focus.A
participant_007,b,17,experiment,22,8,1,exclusive,y,8b,8a,8a,528.0,656.0,488.0,619.0,514.0,559.0,503.0,,898.0,right,A,False,right,0.295,0.705,745.0,220.0,525.0,3.0,4.0,7.0,2.0,3.0,5.0,5.0,right,60.0,right,118.0,exclusive.A
participant_007,b,12,experiment,27,9,1,contrastive,n,9a,9b,9b,560.0,721.0,676.0,722.0,660.0,582.0,565.0,,1558.0,right,B,False,right,0.048,0.952,1253.0,60.0,1193.0,1.0,4.0,5.0,0.0,3.0,3.0,1.0,left,60.0,left,60.0,contrastive.B
participant_007,b,21,experiment,29,10,1,focus,n,10a,10b,,447.0,806.0,520.0,370.0,529.0,582.0,693.0,,810.0,left,A,False,left,0.83,0.17,665.0,552.0,113.0,3.0,2.0,5.0,2.0,1.0,3.0,2.0,left,216.0,left,216.0,focus.A
participant_007,b,39,experiment,31,11,1,exclusive,n,11a,11b,11a,484.0,445.0,401.0,403.0,413.0,483.0,444.0,,1103.0,left,A,False,left,0.638,0.362,640.0,408.0,232.0,4.0,2.0,6.0,3.0,1.0,4.0,4.0,left,65.0,left,65.0,exclusive.A
participant_007,b,41,experiment,36,12,1,contrastive,y,12b,12a,12b,1023.0,489.0,685.0,1315.0,470.0,493.0,489.0,,675.0,left,B,False,left,0.892,0.108,582.0,519.0,63.0,2.0,1.0,3.0,1.0,0.0,1.0,2.0,left,228.0,left,228.0,contrastive.B
participant_007,b,14,experiment,38,13,1,focus,y,13b,13a,,537.0,526.0,568.0,663.0,522.0,757.0,707.0,,1131.0,right,A,False,right,0.346,0.654,586.0,203.0,383.0,2.0,4.0,6.0,1.0,3.0,4.0,2.0,right,126.0,right,201.0,focus.A
participant_007,b,29,experiment,40,14,1,exclusive,y,14b,14a,14a,435.0,373.0,435.0,428.0,400.0,390.0,470.0,,1302.0,right,A,False,right,0.163,0.837,1022.0,167.0,855.0,3.0,4.0,7.0,2.0,3.0,5.0,4.0,right,54.0,right,110.0,exclusive.A
participant_007,b,46,experiment,45,15,1,contrastive,n,15a,15b,15b,560.0,431.0,365.0,422.0,390.0,387.0,296.0,,1187.0,right,B,False,left,0.502,0.498,1118.0,561.0,557.0,2.0,2.0,4.0,1.0,1.0,2.0,3.0,left,231.0,left,231.0,contrastive.B
participant_007,b,18,experiment,47,16,1,focus,n,16a,16b,,564.0,494.0,498.0,776.0,502.0,651.0,858.0,,1047.0,left,A,False,left,0.754,0.246,781.0,589.0,192.0,3.0,2.0,5.0,2.0,1.0,3.0,3.0,right,132.0,right,132.0,focus.A
participant_007,b,23,experiment,49,17,1,exclusive,n,17a,17b,17a,516.0,825.0,596.0,649.0,629.0,517.0,598.0,,885.0,left,A,False,left,0.919,0.081,704.0,647.0,57.0,2.0,1.0,3.0,1.0,0.0,1.0,1.0,right,57.0,right,57.0,exclusive.A
participant_007,b,43,experiment,54,18,1,contrastive,y,18b,18a,18b,391.0,329.0,380.0,346.0,544.0,432.0,440.0,,719.0,left,B,False,left,0.908,0.092,622.0,565.0,57.0,2.0,1.0,3.0,1.0,0.0,1.0,1.0,right,57.0,right,57.0,contrastive.B
participant_008,c,33,experiment,3,1,1,contrastive,n,1a,1b,1b,489.0,481.0,380.0,370.0,349.0,453.0,440.0,,1577.0,right,B,False,right,0.0,1.0,413.6,0.0,413.6,0.0,2.0,2.0,0.0,1.0,1.0,0.0,right,150.0,right,413.6,contrastive.B
participant_008,c,36,experiment,5,2,1,focus,n,2a,2b,,803.0,865.0,564.0,435.0,405.0,521.0,424.0,,1029.0,left,A,False,left,1.0,0.0,872.0,872.0,0.0,3.0,0.0,3.0,2.0,0.0,2.0,0.0,left,168.0,left,872.0,focus.A
participant_008,c,34,experiment,7,3,1,exclusive,n,3a,3b,3a,362.0,408.0,413.0,408.0,418.0,378.0,423.0,,1642.0,left,A,False,left,0.649,0.351,1421.0,922.0,499.0,3.0,3.0,6.0,2.0,2.0,4.0,4.0,left,65.0,left,65.0,exclusive.A
participant_008,c,47,experiment,12,4,1,contrastive,y,4b,4a,4b,332.0,340.0,300.0,335.0,348.0,347.0,333.0,,833.0,left,B,False,right,0.388,0.612,659.0,256.0,403.0,4.0,3.0,7.0,3.0,2.0,5.0,4.0,left,83.0,left,83.0,contrastive.B
participant_008,c,27,experiment,14,5,1,focus,y,5b,5a,,501.0,437.0,380.0,379.0,469.0,803.0,562.0,,847.0,right,A,False,right,0.0,1.0,763.0,0.0,763.0,0.0,1.0,1.0,0.0,0.0,0.0,0.0,right,763.0,right,763.0,focus.A
participant_008,c,17,experiment,16,6,1,exclusive,y,6b,6a,6a,720.0,419.0,386.0,560.0,510.0,621.0,473.0,,1467.0,right,A,False,right,0.255,0.745,1392.0,355.0,1037.0,3.0,4.0,7.0,2.0,3.0,5.0,5.0,left,69.0,left,69.0,exclusive.A
participant_008,c,49,experiment,21,7,1,contrastive,n,7a,7b,7b,316.0,330.0,357.0,329.0,359.0,314.0,326.0,,538.0,right,B,False,right,0.0,1.0,541.0,0.0,541.0,0.0,1.0,1.0,0.0,0.0,0.0,0.0,right,541.0,right,541.0,contrastive.B
participant_008,c,12,experiment,23,8,1,focus,n,8a,8b,,431.0,498.0,398.0,443.0,434.0,464.0,535.0,,1426.0,left,A,False,left,0.739,0.261,1324.0,979.0,345.0,2.0,2.0,4.0,1.0,1.0,2.0,3.0,left,162.0,left,162.0,focus.A
participant_008,c,40,experiment,25,9,1,exclusive,n,9a,9b,9a,468.0,396.0,344.0,355.0,430.0,400.0,353.0,,1588.0,left,A,False,left,0.737,0.263,1276.0,941.0,335.0,2.0,2.0,4.0,1.0,1.0,2.0,2.0,right,168.0,right,168.0,exclusive.A
participant_008,c,43,experiment,30,10,1,contrastive,y,10b,10a,10b,671.0,660.0,647.0,756.0,355.0,522.0,391.0,,783.0,left,B,False,left,1.0,0.0,764.0,764.0,0.0,1.0,0.0,1.0,0.0,0.0,0.0,0.0,left,764.0,left,764.0,contrastive.B
participant_008,c,22,experiment,32,11,1,focus,y,11b,11a,,439.0,357.0,421.0,492.0,476.0,476.0,464.0,,969.0,right,A,False,right,0.07,0.93,830.0,58.0,772.0,1.0,2.0,3.0,0.0,1.0,1.0,2.0,right,123.0,right,123.0,focus.A
participant_008,c,10,experiment,34,12,1,exclusive,y,12b,12a,12a,632.0,1035.0,483.0,485.0,457.0,657.0,469.0,,921.0,right,A,False,right,0.0,1.0,821.0,0.0,821.0,0.0,2.0,2.0,0.0,1.0,1.0,0.0,right,182.0,right,821.0,exclusive.A
participant_008,c,20,experiment,39,13,1,contrastive,n,13a,13b,13b,508.0,495.0,412.0,410.0,431.0,419.0,403.0,,1494.0,right,B,False,right,0.401,0.599,1278.0,513.0,765.0,2.0,2.0,4.0,1.0,1.0,2.0,1.0,left,63.0,left,513.0,contrastive.B
participant_008,c,29,experiment,41,14,1,focus,n,14a,14b,,433.0,375.0,371.0,454.0,645.0,808.0,595.0,,1145.0,left,A,False,right,0.144,0.856,986.0,142.0,844.0,2.0,4.0,6.0,1.0,3.0,4.0,4.0,right,83.0,right,83.0,focus.A
participant_008,c,15,experiment,43,15,1,exclusive,n,15a,15b,15a,497.0,501.0,538.0,1264.0,591.0,801.0,1258.0,,1440.0,left,A,False,left,0.684,0.316,1320.0,903.0,417.0,3.0,3.0,6.0,2.0,2.0,4.0,4.0,left,74.0,left,74.0,exclusive.A
participant_008,c,25,experiment,48,16,1,contrastive,y,16b,16a,16b,408.0,361.0,357.0,373.0,456.0,398.0,384.0,,875.0,left,B,False,left,0.751,0.249,728.0,547.0,181.0,2.0,1.0,3.0,1.0,0.0,1.0,1.0,right,181.0,right,181.0,contrastive.B
participant_008,c,24,experiment,50,17,1,focus,y,17b,17a,,439.0,465.0,488.0,816.0,474.0,701.0,2427.0,,4834.0,right,A,False,right,0.334,0.666,2719.2,907.2,1812.0,5.0,5.0,10.0,4.0,4.0,8.0,6.0,left,201.0,left,201.0,focus.A
participant_008,c,38,experiment,52,18,1,exclusive,y,18b,18a,18a,457.0,402.0,375.0,402.0,386.0,620.0,765.0,,1357.0,right,A,False,left,0.607,0.393,1060.0,643.0,417.0,4.0,5.0,9.0,3.0,4.0,7.0,5.0,right,114.0,right,168.0,exclusive.A
participant_009,c,33,experiment,3,1,1,contrastive,n,1a,1b,1b,582.0,526.0,550.0,442.0,597.0,894.0,481.0,,1990.0,right,B,False,right,0.195,0.805,1856.0,362.0,1494.0,5.0,6.0,11.0,4.0,5.0,9.0,9.0,left,73.0,left,73.0,contrastive.B
participant_009,c,36,experiment,5,2,1,focus,n,2a,2b,,483.0,463.0,373.0,441.0,383.0,467.0,491.0,,970.0,left,A,False,left,1.0,0.0,785.0,785.0,0.0,1.0,0.0,1.0,0.0,0.0,0.0,0.0,left,785.0,left,785.0,focus.A
participant_009,c,34,experiment,7,3,1,exclusive,n,3a,3b,3a,509.0,436.0,345.0,548.0,473.0,828.0,505.0,,1390.0,left,A,False,right,0.42,0.58,1139.0,478.0,661.0,4.0,4.0,8.0,3.0,3.0,6.0,5.0,right,264.0,right,401.0,exclusive.A
participant_009,c,47,experiment,12,4,1,contrastive,y,4b,4a,4b,1571.0,476.0,399.0,1215.0,477.0,1061.0,1021.0,,1305.0,left,B,False,left,0.828,0.172,569.6,471.6,98.0,2.0,1.0,3.0,1.0,0.0,1.0,2.0,left,208.0,left,208.0,contrastive.B
participant_009,c,27,experiment,14,5,1,focus,y,5b,5a,,586.0,471.0,494.0,477.0,423.0,401.0,979.0,,2037.0,right,A,False,left,0.624,0.376,1275.0,795.0,480.0,3.0,4.0,7.0,2.0,3.0,5.0,2.0,left,204.0,left,204.0,focus.A
participant_009,c,17,experiment,16,6,1,exclusive,y,6b,6a,6a,735.0,479.0,371.0,398.0,405.0,1049.0,446.0,,1171.0,right,A,False,right,0.321,0.679,794.0,255.0,539.0,3.0,5.0,8.0,2.0,4.0,6.0,5.0,left,78.0,left,78.0,exclusive.A
participant_009,c,49,experiment,21,7,1,contrastive,n,7a,7b,7b,469.0,472.0,457.0,418.0,801.0,528.0,535.0,,1120.0,right,B,False,right,0.0,1.0,263.6,0.0,263.6,0.0,1.0,1.0,0.0,0.0,0.0,0.0,right,263.6,right,263.6,contrastive.B
participant_009,c,12,experiment,23,8,1,focus,n,8a,8b,,670.0,467.0,923.0,722.0,662.0,741.0,751.0,,1561.0,left,A,False,right,0.463,0.537,1145.0,530.0,615.0,1.0,3.0,4.0,0.0,2.0,2.0,1.0,right,61.0,right,615.0,focus.A
participant_009,c,40,experiment,25,9,1,exclusive,n,9a,9b,9a,490.0,326.0,373.0,370.0,365.0,647.0,448.0,,1002.0,left,A,False,left,0.636,0.364,390.0,248.0,142.0,3.0,2.0,5.0,2.0,1.0,3.0,3.0,right,73.0,right,73.0,exclusive.A
participant_009,c,43,experiment,30,10,1,contrastive,y,10b,10a,10b,537.0,447.0,405.0,468.0,424.0,1791.0,922.0,,1521.0,left,B,False,left,0.828,0.172,952.0,788.0,164.0,4.0,2.0,6.0,3.0,1.0,4.0,4.0,left,104.0,left,104.0,contrastive.B
participant_009,c,22,experiment,32,11,1,focus,y,11b,11a,,447.0,409.0,418.0,382.0,354.0,387.0,589.0,,1018.0,right,A,False,right,0.228,0.772,877.0,200.0,677.0,2.0,2.0,4.0,1.0,1.0,2.0,3.0,left,96.0,left,96.0,focus.A
participant_009,c,10,experiment,34,12,1,exclusive,y,12b,12a,12a,805.0,535.0,520.0,1465.0,585.0,1077.0,1433.0,,1531.0,right,A,False,left,0.536,0.464,1195.0,641.0,554.0,2.0,4.0,6.0,1.0,3.0,4.0,3.0,left,86.0,left,86.0,exclusive.A
participant_009,c,20,experiment,39,13,1,contrastive,n,13a,13b,13b,561.0,483.0,444.0,432.0,464.0,484.0,1006.0,,5758.0,right,B,False,right,0.247,0.753,3280.2,809.0,2471.2,3.0,8.0,11.0,2.0,7.0,9.0,4.0,right,54.0,right,115.0,contrastive.B
participant_009,c,29,experiment,41,14,1,focus,n,14a,14b,,522.0,475.0,397.0,464.0,428.0,472.0,1544.0,,8841.0,right,B,False,right,0.48,0.52,4199.7,2017.0,2182.7,6.0,7.0,13.0,5.0,6.0,11.0,4.0,right,263.6,right,1109.6,focus.B
participant_009,c,15,experiment,43,15,1,exclusive,n,15a,15b,15a,578.0,388.0,1105.0,451.0,427.0,604.0,610.0,,2161.0,left,A,False,left,0.583,0.417,1174.0,684.0,490.0,6.0,5.0,11.0,5.0,4.0,9.0,6.0,right,90.0,right,90.0,exclusive.A
participant_009,c,25,experiment,48,16,1,contrastive,y,16b,16a,16b,457.0,391.0,412.0,378.0,377.0,707.0,617.0,,1372.0,left,B,False,left,0.555,0.445,1133.0,629.0,504.0,4.0,4.0,8.0,3.0,3.0,6.0,6.0,left,238.0,left,238.0,contrastive.B
participant_009,c,24,experiment,50,17,1,focus,y,17b,17a,,413.0,378.0,387.0,397.0,456.0,398.0,961.0,,1549.0,right,A,False,left,0.82,0.18,1391.0,1141.0,250.0,5.0,4.0,9.0,4.0,3.0,7.0,7.0,left,289.0,left,289.0,focus.A
participant_009,c,38,experiment,52,18,1,exclusive,y,18b,18a,18a,528.0,398.0,301.0,381.0,404.0,430.0,432.0,,1599.0,right,A,False,left,0.574,0.426,1051.0,603.0,448.0,2.0,3.0,5.0,1.0,2.0,3.0,1.0,left,258.0,left,603.0,exclusive.A
participant_010,c,33,experiment,3,1,1,contrastive,n,1a,1b,1b,291.0,278.0,253.0,314.0,286.0,304.0,325.0,,2573.0,left,A,True,left,0.519,0.481,2014.0,1046.0,968.0,4.0,7.0,11.0,3.0,6.0,9.0,5.0,right,54.0,right,54.0,contrastive.A
participant_010,c,36,experiment,5,2,1,focus,n,2a,2b,,270.0,240.0,246.0,246.0,459.0,324.0,302.0,,558.0,left,A,False,left,0.702,0.298,363.0,255.0,108.0,1.0,1.0,2.0,0.0,0.0,0.0,1.0,right,108.0,right,108.0,focus.A
participant_010,c,34,experiment,7,3,1,exclusive,n,3a,3b,3a,326.0,342.0,373.0,636.0,538.0,532.0,370.0,,698.0,left,A,False,left,1.0,0.0,633.0,633.0,0.0,2.0,0.0,2.0,1.0,0.0,1.0,0.0,left,230.0,left,633.0,exclusive.A
participant_010,c,47,experiment,12,4,1,contrastive,y,4b,4a,4b,300.0,252.0,248.0,193.0,284.0,324.0,282.0,,429.0,right,A,True,right,0.0,1.0,387.0,0.0,387.0,0.0,1.0,1.0,0.0,0.0,0.0,0.0,right,387.0,right,387.0,contrastive.A
participant_010,c,27,experiment,14,5,1,focus,y,5b,5a,,281.0,211.0,281.0,218.0,232.0,234.0,263.0,,602.0,right,A,False,right,0.0,1.0,450.0,0.0,450.0,0.0,1.0,1.0,0.0,0.0,0.0,0.0,right,450.0,right,450.0,focus.A
participant_010,c,17,experiment,16,6,1,exclusive,y,6b,6a,6a,276.0,293.0,246.0,242.0,312.0,310.0,319.0,,790.0,right,A,False,right,0.0,1.0,732.0,0.0,732.0,0.0,1.0,1.0,0.0,0.0,0.0,0.0,right,732.0,right,732.0,exclusive.A
participant_010,c,49,experiment,21,7,1,contrastive,n,7a,7b,7b,313.0,326.0,245.0,300.0,449.0,370.0,337.0,,383.0,left,A,True,left,1.0,0.0,350.0,350.0,0.0,1.0,0.0,1.0,0.0,0.0,0.0,0.0,left,350.0,left,350.0,contrastive.A
participant_010,c,12,experiment,23,8,1,focus,n,8a,8b,,360.0,361.0,324.0,305.0,318.0,303.0,288.0,,783.0,left,A,False,left,1.0,0.0,226.0,226.0,0.0,2.0,0.0,2.0,1.0,0.0,1.0,0.0,left,175.0,left,226.0,focus.A
participant_010,c,40,experiment,25,9,1,exclusive,n,9a,9b,9a,276.0,267.0,208.0,225.0,219.0,422.0,266.0,,647.0,left,A,False,left,0.727,0.273,498.0,362.0,136.0,1.0,2.0,3.0,0.0,1.0,1.0,1.0,right,85.0,right,136.0,exclusive.A
participant_010,c,43,experiment,30,10,1,contrastive,y,10b,10a,10b,215.0,157.0,146.0,167.0,282.0,206.0,327.0,,617.0,right,A,True,right,0.119,0.881,521.0,62.0,459.0,1.0,2.0,3.0,0.0,1.0,1.0,1.0,left,62.0,left,62.0,contrastive.A
participant_010,c,22,experiment,32,11,1,focus,y,11b,11a,,326.0,270.0,279.0,289.0,280.0,351.0,412.0,,467.0,right,A,False,right,0.0,1.0,148.0,0.0,148.0,0.0,1.0,1.0,0.0,0.0,0.0,0.0,right,148.0,right,148.0,focus.A
participant_010,c,10,experiment,34,12,1,exclusive,y,12b,12a,12a,513.0,483.0,672.0,542.0,451.0,449.0,592.0,,1062.0,right,A,False,right,0.0,1.0,396.6,0.0,396.6,0.0,2.0,2.0,0.0,1.0,1.0,0.0,right,133.0,right,396.6,exclusive.A
participant_010,c,20,experiment,39,13,1,contrastive,n,13a,13b,13b,283.0,287.0,356.0,240.0,313.0,300.0,387.0,,1148.0,left,A,True,left,1.0,0.0,371.6,371.6,0.0,2.0,0.0,2.0,1.0,0.0,1.0,0.0,left,263.6,left,371.6,contrastive.A
participant_010,c,29,experiment,41,14,1,focus,n,14a,14b,,260.0,241.0,381.0,405.0,329.0,305.0,338.0,,915.0,left,A,False,left,0.797,0.203,512.0,408.0,104.0,3.0,2.0,5.0,2.0,1.0,3.0,2.0,left,100.0,left,100.0,focus.A
participant_010,c,15,experiment,43,15,1,exclusive,n,15a,15b,15a,327.0,192.0,304.0,279.0,409.0,349.0,324.0,,413.0,left,A,False,left,1.0,0.0,315.0,315.0,0.0,2.0,0.0,2.0,1.0,0.0,1.0,0.0,left,54.0,left,315.0,exclusive.A
participant_010,c,25,experiment,48,16,1,contrastive,y,16b,16a,16b,300.0,232.0,248.0,268.0,251.0,261.0,255.0,,977.0,right,A,True,right,0.268,0.732,704.0,189.0,515.0,2.0,3.0,5.0,1.0,2.0,3.0,3.0,right,151.0,right,151.0,contrastive.A
participant_010,c,24,experiment,50,17,1,focus,y,17b,17a,,316.0,238.0,242.0,214.0,207.0,214.0,336.0,,498.0,right,A,False,right,0.0,1.0,209.0,0.0,209.0,0.0,2.0,2.0,0.0,1.0,1.0,0.0,right,121.0,right,209.0,focus.A
participant_010,c,38,experiment,52,18,1,exclusive,y,18b,18a,18a,302.0,200.0,200.0,226.0,231.0,265.0,323.0,,849.0,right,A,False,right,0.0,1.0,844.0,0.0,844.0,0.0,1.0,1.0,0.0,0.0,0.0,0.0,right,844.0,right,844.0,exclusive.A
participant_011,a,36,experiment,1,1,1,exclusive,n,1a,1b,1a,488.0,238.0,289.0,445.0,236.0,208.0,480.0,,2473.0,right,B,True,left,0.508,0.492,2311.0,1173.0,1138.0,3.0,4.0,7.0,2.0,3.0,5.0,1.0,left,806.0,left,1173.0,exclusive.B
participant_011,a,50,experiment,6,2,1,contrastive,y,2b,2a,2b,305.0,182.0,201.0,215.0,200.0,232.0,440.0,,532.0,right,A,True,right,0.0,1.0,176.0,0.0,176.0,0.0,2.0,2.0,0.0,1.0,1.0,0.0,right,69.0,right,176.0,contrastive.A
participant_011,a,18,experiment,8,3,1,focus,y,3b,3a,,597.0,321.0,210.0,390.0,301.0,260.0,172.0,,920.0,left,B,False,left,0.792,0.208,612.0,485.0,127.0,1.0,2.0,3.0,0.0,1.0,1.0,1.0,right,60.0,right,127.0,focus.B
participant_011,a,43,experiment,10,4,1,exclusive,y,4b,4a,4a,535.0,244.0,2164.0,321.0,373.0,368.0,419.0,,682.0,left,B,True,left,1.0,0.0,611.0,611.0,0.0,3.0,0.0,3.0,2.0,0.0,2.0,0.0,left,197.0,left,611.0,exclusive.B
participant_011,a,10,experiment,15,5,1,contrastive,n,5a,5b,5b,1106.0,493.0,515.0,379.0,376.0,858.0,579.0,,1649.0,left,A,True,left,0.751,0.249,655.0,492.0,163.0,5.0,2.0,7.0,4.0,1.0,5.0,1.0,right,66.0,right,163.0,contrastive.A
participant_011,a,13,experiment,17,6,1,focus,n,6a,6b,,608.0,512.0,529.0,804.0,445.0,334.0,1121.0,,834.0,left,A,False,left,1.0,0.0,541.0,541.0,0.0,3.0,0.0,3.0,2.0,0.0,2.0,0.0,left,132.0,left,541.0,focus.A
participant_011,a,49,experiment,19,7,1,exclusive,n,7a,7b,7a,384.0,234.0,201.0,206.0,324.0,220.0,584.0,,2981.0,right,B,True,right,0.03,0.97,2166.0,65.0,2101.0,1.0,10.0,11.0,0.0,9.0,9.0,2.0,right,182.0,right,1687.0,exclusive.B
participant_011,a,47,experiment,24,8,1,contrastive,y,8b,8a,8b,287.0,226.0,246.0,210.0,327.0,313.0,345.0,,1892.0,right,A,True,right,0.118,0.882,903.0,107.0,796.0,1.0,3.0,4.0,0.0,2.0,2.0,1.0,left,107.0,left,107.0,contrastive.A
participant_011,a,35,experiment,26,9,1,focus,y,9b,9a,,439.0,319.0,288.0,608.0,217.0,439.0,460.0,,464.0,left,B,False,left,1.0,0.0,233.0,233.0,0.0,2.0,0.0,2.0,1.0,0.0,1.0,0.0,left,134.0,left,233.0,focus.B
participant_011,a,45,experiment,28,10,1,exclusive,y,10b,10a,10a,520.0,227.0,184.0,398.0,294.0,732.0,304.0,,858.0,right,A,False,right,0.445,0.555,326.0,145.0,181.0,1.0,2.0,3.0,0.0,1.0,1.0,1.0,left,145.0,left,145.0,exclusive.A
participant_011,a,42,experiment,33,11,1,contrastive,n,11a,11b,11b,1555.0,326.0,1744.0,368.0,248.0,629.0,424.0,,1168.0,left,A,True,left,0.506,0.494,462.0,234.0,228.0,3.0,3.0,6.0,2.0,2.0,4.0,3.0,right,62.0,right,62.0,contrastive.A
participant_011,a,27,experiment,35,12,1,focus,n,12a,12b,,554.0,434.0,451.0,699.0,305.0,732.0,409.0,,982.0,left,A,False,left,1.0,0.0,530.0,530.0,0.0,4.0,0.0,4.0,3.0,0.0,3.0,0.0,left,67.0,left,530.0,focus.A
participant_011,a,38,experiment,37,13,1,exclusive,n,13a,13b,13a,600.0,290.0,209.0,234.0,900.0,471.0,353.0,,770.0,right,B,True,right,0.0,1.0,488.0,0.0,488.0,0.0,2.0,2.0,0.0,1.0,1.0,0.0,right,418.0,right,488.0,exclusive.B
participant_011,a,31,experiment,42,14,1,contrastive,y,14b,14a,14b,493.0,324.0,218.0,790.0,372.0,370.0,620.0,,3077.0,left,B,False,left,0.562,0.438,2744.0,1543.0,1201.0,6.0,2.0,8.0,5.0,1.0,6.0,3.0,right,733.0,right,733.0,contrastive.B
participant_011,a,29,experiment,44,15,1,focus,y,15b,15a,,510.0,266.0,288.0,312.0,345.0,335.0,554.0,,847.0,left,B,False,left,1.0,0.0,748.0,748.0,0.0,3.0,0.0,3.0,2.0,0.0,2.0,0.0,left,377.0,left,748.0,focus.B
participant_011,a,40,experiment,46,16,1,exclusive,y,16b,16a,16a,464.0,182.0,386.0,296.0,230.0,418.0,298.0,,940.0,right,A,False,right,0.087,0.913,778.0,68.0,710.0,1.0,5.0,6.0,0.0,4.0,4.0,2.0,right,64.0,right,64.0,exclusive.A
participant_011,a,34,experiment,51,17,1,contrastive,n,17a,17b,17b,671.0,428.0,393.0,354.0,309.0,560.0,443.0,,742.0,left,A,True,left,0.842,0.158,645.0,543.0,102.0,3.0,1.0,4.0,2.0,0.0,2.0,2.0,left,66.0,left,66.0,contrastive.A
participant_011,a,21,experiment,53,18,1,focus,n,18a,18b,,509.0,291.0,341.0,360.0,327.0,369.0,464.0,,905.0,right,B,False,right,0.0,1.0,735.0,0.0,735.0,0.0,3.0,3.0,0.0,2.0,2.0,0.0,right,533.0,right,735.0,focus.B
participant_012,b,34,experiment,2,1,1,focus,y,1b,1a,,564.0,191.0,269.0,488.0,192.0,176.0,457.0,,537.0,right,A,False,right,0.0,1.0,440.0,0.0,440.0,0.0,1.0,1.0,0.0,0.0,0.0,0.0,right,440.0,right,440.0,focus.A
participant_012,b,26,experiment,4,2,1,exclusive,y,2b,2a,2a,314.0,182.0,160.0,195.0,253.0,198.0,189.0,,925.0,left,B,True,left,1.0,0.0,734.0,734.0,0.0,3.0,0.0,3.0,2.0,0.0,2.0,0.0,left,232.0,left,734.0,exclusive.B
participant_012,b,49,experiment,9,3,1,contrastive,n,3a,3b,3b,243.0,261.0,240.0,224.0,256.0,259.0,731.0,,885.0,right,B,False,right,0.0,1.0,606.0,0.0,606.0,0.0,6.0,6.0,0.0,5.0,5.0,0.0,right,132.0,right,606.0,contrastive.B
participant_012,b,25,experiment,11,4,1,focus,n,4a,4b,,256.0,177.0,173.0,177.0,205.0,262.0,371.0,,660.0,left,A,False,left,1.0,0.0,188.0,188.0,0.0,3.0,0.0,3.0,2.0,0.0,2.0,0.0,left,58.0,left,188.0,focus.A
participant_012,b,13,experiment,13,5,1,exclusive,n,5a,5b,5a,424.0,365.0,339.0,368.0,293.0,356.0,428.0,,1313.0,right,B,True,right,0.0,1.0,903.0,0.0,903.0,0.0,5.0,5.0,0.0,4.0,4.0,0.0,right,101.0,right,903.0,exclusive.B
participant_012,b,15,experiment,18,6,1,contrastive,y,6b,6a,6b,236.0,303.0,273.0,377.0,296.0,211.0,445.0,,1833.0,right,A,True,right,0.241,0.759,1044.0,252.0,792.0,3.0,5.0,8.0,2.0,4.0,6.0,1.0,left,101.0,left,252.0,contrastive.A
participant_012,b,37,experiment,20,7,1,focus,y,7b,7a,,232.0,177.0,127.0,376.0,200.0,223.0,433.0,,1097.0,right,A,False,right,0.0,1.0,263.6,0.0,263.6,0.0,1.0,1.0,0.0,0.0,0.0,0.0,right,263.6,right,263.6,focus.A
participant_012,b,17,experiment,22,8,1,exclusive,y,8b,8a,8a,202.0,194.0,360.0,239.0,343.0,259.0,381.0,,1222.0,right,A,False,right,0.217,0.783,470.0,102.0,368.0,1.0,2.0,3.0,0.0,1.0,1.0,1.0,left,102.0,left,102.0,exclusive.A
participant_012,b,12,experiment,27,9,1,contrastive,n,9a,9b,9b,544.0,361.0,528.0,361.0,350.0,411.0,558.0,,1456.0,left,A,True,left,0.633,0.367,360.0,228.0,132.0,3.0,2.0,5.0,2.0,1.0,3.0,1.0,left,100.0,left,228.0,contrastive.A
participant_012,b,21,experiment,29,10,1,focus,n,10a,10b,,244.0,173.0,200.0,397.0,291.0,207.0,521.0,,1573.0,left,A,False,left,1.0,0.0,395.0,395.0,0.0,4.0,0.0,4.0,3.0,0.0,3.0,0.0,left,96.0,left,395.0,focus.A
participant_012,b,39,experiment,31,11,1,exclusive,n,11a,11b,11a,232.0,281.0,178.0,483.0,306.0,435.0,469.0,,897.0,left,A,False,left,0.55,0.45,540.0,297.0,243.0,2.0,1.0,3.0,1.0,0.0,1.0,1.0,right,243.0,right,243.0,exclusive.A
participant_012,b,41,experiment,36,12,1,contrastive,y,12b,12a,12b,396.0,475.0,265.0,239.0,220.0,197.0,215.0,,2167.0,left,B,False,left,0.966,0.034,1765.0,1705.0,60.0,8.0,1.0,9.0,7.0,0.0,7.0,1.0,right,60.0,right,60.0,contrastive.B
participant_012,b,14,experiment,38,13,1,focus,y,13b,13a,,344.0,264.0,328.0,304.0,331.0,399.0,578.0,,971.0,right,A,False,right,0.142,0.858,466.0,66.0,400.0,1.0,3.0,4.0,0.0,2.0,2.0,1.0,left,66.0,left,66.0,focus.A
participant_012,b,29,experiment,40,14,1,exclusive,y,14b,14a,14a,411.0,206.0,144.0,205.0,437.0,248.0,494.0,,2840.0,left,B,True,left,0.702,0.298,2516.0,1767.0,749.0,6.0,2.0,8.0,5.0,1.0,6.0,4.0,left,400.0,left,599.0,exclusive.B
participant_012,b,46,experiment,45,15,1,contrastive,n,15a,15b,15b,311.0,240.0,192.0,298.0,200.0,206.0,440.0,,1161.0,right,B,False,right,0.0,1.0,1038.0,0.0,1038.0,0.0,5.0,5.0,0.0,4.0,4.0,0.0,right,72.0,right,1038.0,contrastive.B
participant_012,b,18,experiment,47,16,1,focus,n,16a,16b,,231.0,178.0,198.0,321.0,256.0,336.0,367.0,,1462.0,left,A,False,left,1.0,0.0,747.0,747.0,0.0,7.0,0.0,7.0,6.0,0.0,6.0,0.0,left,65.0,left,747.0,focus.A
participant_012,b,23,experiment,49,17,1,exclusive,n,17a,17b,17a,248.0,200.0,225.0,335.0,366.0,298.0,336.0,,1173.0,left,A,False,left,0.845,0.155,431.0,364.0,67.0,2.0,1.0,3.0,1.0,0.0,1.0,1.0,right,67.0,right,67.0,exclusive.A
participant_012,b,43,experiment,54,18,1,contrastive,y,18b,18a,18b,416.0,217.0,223.0,448.0,208.0,289.0,679.0,,4272.0,left,B,False,left,0.85,0.15,1759.2,1495.6,263.6,4.0,1.0,5.0,3.0,0.0,3.0,2.0,left,202.0,left,1232.0,contrastive.B
participant_013,c,33,experiment,3,1,1,contrastive,n,1a,1b,1b,239.0,200.0,416.0,213.0,200.0,220.0,335.0,,1206.0,left,A,True,left,1.0,0.0,596.0,596.0,0.0,3.0,0.0,3.0,2.0,0.0,2.0,0.0,left,334.0,left,596.0,contrastive.A
participant_013,c,36,experiment,5,2,1,focus,n,2a,2b,,185.0,233.0,263.0,176.0,207.0,325.0,356.0,,932.0,left,A,False,left,1.0,0.0,131.0,131.0,0.0,2.0,0.0,2.0,1.0,0.0,1.0,0.0,left,64.0,left,131.0,focus.A
participant_013,c,34,experiment,7,3,1,exclusive,n,3a,3b,3a,351.0,217.0,229.0,199.0,204.0,162.0,429.0,,1967.0,left,A,False,left,1.0,0.0,1098.0,1098.0,0.0,5.0,0.0,5.0,4.0,0.0,4.0,0.0,left,416.0,left,1098.0,exclusive.A
participant_013,c,47,experiment,12,4,1,contrastive,y,4b,4a,4b,280.0,200.0,405.0,171.0,273.0,359.0,296.0,,1395.0,right,A,True,right,0.0,1.0,1277.0,0.0,1277.0,0.0,3.0,3.0,0.0,2.0,2.0,0.0,right,770.0,right,1277.0,contrastive.A
participant_013,c,27,experiment,14,5,1,focus,y,5b,5a,,336.0,207.0,225.0,311.0,274.0,200.0,412.0,,912.0,right,A,False,right,0.366,0.634,636.0,233.0,403.0,2.0,3.0,5.0,1.0,2.0,3.0,1.0,left,133.0,left,233.0,focus.A
participant_013,c,17,experiment,16,6,1,exclusive,y,6b,6a,6a,411.0,201.0,189.0,111.0,372.0,237.0,202.0,,1084.0,right,A,False,right,0.334,0.666,800.0,267.0,533.0,2.0,2.0,4.0,1.0,1.0,2.0,1.0,left,133.0,left,267.0,exclusive.A
participant_013,c,49,experiment,21,7,1,contrastive,n,7a,7b,7b,247.0,160.0,176.0,169.0,191.0,263.0,307.0,,597.0,left,A,True,,,,1153.6604048582997,,,,,5.442914979757085,,,,2.0,,219.86008097165993,,415.19109311740897,contrastive.A
participant_013,c,12,experiment,23,8,1,focus,n,8a,8b,,466.0,234.0,189.0,312.0,264.0,273.0,338.0,,1107.0,left,A,False,left,1.0,0.0,538.0,538.0,0.0,7.0,0.0,7.0,6.0,0.0,6.0,0.0,left,68.0,left,538.0,focus.A
participant_013,c,40,experiment,25,9,1,exclusive,n,9a,9b,9a,237.0,199.0,287.0,353.0,193.0,279.0,665.0,,728.0,right,B,True,right,0.0,1.0,713.0,0.0,713.0,0.0,1.0,1.0,0.0,0.0,0.0,0.0,right,713.0,right,713.0,exclusive.B
participant_013,c,43,experiment,30,10,1,contrastive,y,10b,10a,10b,300.0,318.0,180.0,149.0,120.0,272.0,248.0,,905.0,right,A,True,right,0.0,1.0,674.0,0.0,674.0,0.0,2.0,2.0,0.0,1.0,1.0,0.0,right,108.0,right,674.0,contrastive.A
participant_013,c,22,experiment,32,11,1,focus,y,11b,11a,,296.0,144.0,200.0,202.0,318.0,287.0,249.0,,957.0,right,A,False,right,0.0,1.0,743.0,0.0,743.0,0.0,3.0,3.0,0.0,2.0,2.0,0.0,right,106.0,right,743.0,focus.A
participant_013,c,10,experiment,34,12,1,exclusive,y,12b,12a,12a,418.0,254.0,352.0,285.0,219.0,456.0,429.0,,1460.0,right,A,False,right,0.0,1.0,1371.0,0.0,1371.0,0.0,4.0,4.0,0.0,3.0,3.0,0.0,right,707.0,right,1371.0,exclusive.A
participant_013,c,20,experiment,39,13,1,contrastive,n,13a,13b,13b,242.0,206.0,205.0,227.0,202.0,226.0,255.0,,1023.0,left,A,True,,,,1153.6604048582997,,,,,5.442914979757085,,,,2.0,,219.86008097165993,,415.19109311740897,contrastive.A
participant_013,c,29,experiment,41,14,1,focus,n,14a,14b,,304.0,200.0,280.0,235.0,287.0,246.0,312.0,,1344.0,right,B,False,right,0.204,0.796,1136.0,232.0,904.0,2.0,2.0,4.0,1.0,1.0,2.0,1.0,left,165.0,left,232.0,focus.B
participant_013,c,15,experiment,43,15,1,exclusive,n,15a,15b,15a,316.0,267.0,261.0,173.0,312.0,273.0,253.0,,1178.0,right,B,True,right,0.0,1.0,666.0,0.0,666.0,0.0,1.0,1.0,0.0,0.0,0.0,0.0,right,666.0,right,666.0,exclusive.B
participant_013,c,25,experiment,48,16,1,contrastive,y,16b,16a,16b,509.0,434.0,196.0,173.0,331.0,269.0,376.0,,700.0,right,A,True,right,0.41,0.59,654.0,268.0,386.0,1.0,1.0,2.0,0.0,0.0,0.0,1.0,left,268.0,left,268.0,contrastive.A
participant_013,c,24,experiment,50,17,1,focus,y,17b,17a,,630.0,206.0,236.0,308.0,222.0,182.0,256.0,,963.0,right,A,False,right,0.22,0.78,768.0,169.0,599.0,2.0,3.0,5.0,1.0,2.0,3.0,4.0,right,133.0,right,133.0,focus.A
participant_013,c,38,experiment,52,18,1,exclusive,y,18b,18a,18a,267.0,200.0,164.0,148.0,216.0,268.0,468.0,,862.0,right,A,False,right,0.0,1.0,805.0,0.0,805.0,0.0,2.0,2.0,0.0,1.0,1.0,0.0,right,373.0,right,805.0,exclusive.A
participant_014,b,34,experiment,2,1,1,focus,y,1b,1a,,331.0,370.0,230.0,166.0,402.0,345.0,335.0,,644.0,right,A,False,right,0.0,1.0,504.0,0.0,504.0,0.0,1.0,1.0,0.0,0.0,0.0,0.0,right,504.0,right,504.0,focus.A
participant_014,b,26,experiment,4,2,1,exclusive,y,2b,2a,2a,376.0,273.0,261.0,306.0,425.0,331.0,407.0,,557.0,right,A,False,right,0.0,1.0,506.0,0.0,506.0,0.0,1.0,1.0,0.0,0.0,0.0,0.0,right,506.0,right,506.0,exclusive.A
participant_014,b,49,experiment,9,3,1,contrastive,n,3a,3b,3b,316.0,200.0,160.0,110.0,339.0,517.0,382.0,,519.0,left,A,True,left,1.0,0.0,536.0,536.0,0.0,1.0,0.0,1.0,0.0,0.0,0.0,0.0,left,536.0,left,536.0,contrastive.A
participant_014,b,25,experiment,11,4,1,focus,n,4a,4b,,380.0,254.0,240.0,656.0,447.0,480.0,575.0,,591.0,left,A,False,left,1.0,0.0,367.0,367.0,0.0,2.0,0.0,2.0,1.0,0.0,1.0,0.0,left,142.0,left,367.0,focus.A
participant_014,b,13,experiment,13,5,1,exclusive,n,5a,5b,5a,248.0,183.0,165.0,125.0,428.0,376.0,445.0,,2534.0,left,A,False,left,1.0,0.0,702.0,702.0,0.0,6.0,0.0,6.0,5.0,0.0,5.0,0.0,left,137.0,left,702.0,exclusive.A
participant_014,b,15,experiment,18,6,1,contrastive,y,6b,6a,6b,255.0,184.0,168.0,154.0,158.0,325.0,317.0,,687.0,right,A,True,left,0.703,0.297,555.0,390.0,165.0,2.0,2.0,4.0,1.0,1.0,2.0,3.0,left,328.0,left,328.0,contrastive.A
participant_014,b,37,experiment,20,7,1,focus,y,7b,7a,,379.0,276.0,384.0,359.0,372.0,591.0,361.0,,500.0,right,A,False,right,0.0,1.0,449.0,0.0,449.0,0.0,1.0,1.0,0.0,0.0,0.0,0.0,right,449.0,right,449.0,focus.A
participant_014,b,17,experiment,22,8,1,exclusive,y,8b,8a,8a,415.0,264.0,211.0,278.0,379.0,358.0,384.0,,616.0,right,A,False,right,0.0,1.0,373.0,0.0,373.0,0.0,2.0,2.0,0.0,1.0,1.0,0.0,right,171.0,right,373.0,exclusive.A
participant_014,b,12,experiment,27,9,1,contrastive,n,9a,9b,9b,354.0,238.0,183.0,356.0,312.0,285.0,426.0,,606.0,left,A,True,left,0.663,0.337,436.0,289.0,147.0,1.0,1.0,2.0,0.0,0.0,0.0,1.0,right,147.0,right,147.0,contrastive.A
participant_014,b,21,experiment,29,10,1,focus,n,10a,10b,,346.0,227.0,188.0,389.0,380.0,418.0,394.0,,565.0,left,A,False,left,1.0,0.0,466.0,466.0,0.0,1.0,0.0,1.0,0.0,0.0,0.0,0.0,left,466.0,left,466.0,focus.A
participant_014,b,39,experiment,31,11,1,exclusive,n,11a,11b,11a,426.0,272.0,287.0,373.0,383.0,351.0,422.0,,1024.0,left,A,False,left,0.92,0.08,764.0,703.0,61.0,3.0,1.0,4.0,2.0,0.0,2.0,1.0,right,61.0,right,61.0,exclusive.A
participant_014,b,41,experiment,36,12,1,contrastive,y,12b,12a,12b,236.0,170.0,141.0,132.0,449.0,640.0,521.0,,550.0,right,A,True,right,0.0,1.0,535.0,0.0,535.0,0.0,1.0,1.0,0.0,0.0,0.0,0.0,right,535.0,right,535.0,contrastive.A
participant_014,b,14,experiment,38,13,1,focus,y,13b,13a,,285.0,191.0,172.0,175.0,383.0,352.0,407.0,,831.0,right,A,False,right,0.0,1.0,520.0,0.0,520.0,0.0,1.0,1.0,0.0,0.0,0.0,0.0,right,520.0,right,520.0,focus.A
participant_014,b,29,experiment,40,14,1,exclusive,y,14b,14a,14a,310.0,239.0,204.0,141.0,352.0,374.0,397.0,,501.0,right,A,False,right,0.0,1.0,447.0,0.0,447.0,0.0,1.0,1.0,0.0,0.0,0.0,0.0,right,447.0,right,447.0,exclusive.A
participant_014,b,46,experiment,45,15,1,contrastive,n,15a,15b,15b,328.0,245.0,182.0,358.0,322.0,356.0,425.0,,649.0,left,A,True,left,1.0,0.0,400.0,400.0,0.0,1.0,0.0,1.0,0.0,0.0,0.0,0.0,left,400.0,left,400.0,contrastive.A
participant_014,b,18,experiment,47,16,1,focus,n,16a,16b,,315.0,203.0,158.0,147.0,131.0,345.0,836.0,,811.0,left,A,False,left,1.0,0.0,439.0,439.0,0.0,2.0,0.0,2.0,1.0,0.0,1.0,0.0,left,55.0,left,439.0,focus.A
participant_014,b,23,experiment,49,17,1,exclusive,n,17a,17b,17a,267.0,216.0,154.0,177.0,304.0,350.0,316.0,,504.0,left,A,False,left,1.0,0.0,456.0,456.0,0.0,1.0,0.0,1.0,0.0,0.0,0.0,0.0,left,456.0,left,456.0,exclusive.A
participant_014,b,43,experiment,54,18,1,contrastive,y,18b,18a,18b,303.0,213.0,147.0,149.0,375.0,315.0,368.0,,476.0,right,A,True,right,0.0,1.0,424.0,0.0,424.0,0.0,1.0,1.0,0.0,0.0,0.0,0.0,right,424.0,right,424.0,contrastive.A
participant_015,a,36,experiment,1,1,1,exclusive,n,1a,1b,1a,249.0,417.0,419.0,727.0,468.0,681.0,684.0,,2007.0,left,A,False,left,0.935,0.065,1667.0,1558.0,109.0,5.0,2.0,7.0,4.0,1.0,5.0,4.0,left,99.0,left,99.0,exclusive.A
participant_015,a,50,experiment,6,2,1,contrastive,y,2b,2a,2b,295.0,318.0,331.0,296.0,306.0,255.0,351.0,,1900.0,left,B,False,left,0.833,0.167,316.6,263.6,53.0,1.0,1.0,2.0,0.0,0.0,0.0,1.0,right,53.0,right,53.0,contrastive.B
participant_015,a,18,experiment,8,3,1,focus,y,3b,3a,,568.0,654.0,575.0,721.0,683.0,832.0,648.0,,2168.0,right,A,False,right,0.0,1.0,364.6,0.0,364.6,0.0,2.0,2.0,0.0,1.0,1.0,0.0,right,101.0,right,364.6,focus.A
participant_015,a,43,experiment,10,4,1,exclusive,y,4b,4a,4a,495.0,361.0,518.0,411.0,418.0,389.0,513.0,,1448.0,right,A,False,right,0.207,0.793,411.6,85.0,326.6,1.0,2.0,3.0,0.0,1.0,1.0,1.0,left,85.0,left,85.0,exclusive.A
participant_015,a,10,experiment,15,5,1,contrastive,n,5a,5b,5b,701.0,505.0,714.0,684.0,484.0,487.0,569.0,,2291.0,right,B,False,right,0.188,0.812,1846.0,347.0,1499.0,1.0,6.0,7.0,0.0,5.0,5.0,1.0,left,347.0,left,347.0,contrastive.B
participant_015,a,13,experiment,17,6,1,focus,n,6a,6b,,757.0,785.0,623.0,587.0,625.0,678.0,616.0,,2020.0,left,A,False,right,0.442,0.558,786.6,347.6,439.0,2.0,2.0,4.0,1.0,1.0,2.0,1.0,left,84.0,left,347.6,focus.A
participant_015,a,49,experiment,19,7,1,exclusive,n,7a,7b,7a,467.0,401.0,503.0,399.0,389.0,593.0,784.0,,1583.0,left,A,False,left,0.944,0.056,1184.0,1118.0,66.0,4.0,1.0,5.0,3.0,0.0,3.0,1.0,right,66.0,right,66.0,exclusive.A
participant_015,a,47,experiment,24,8,1,contrastive,y,8b,8a,8b,631.0,475.0,808.0,336.0,354.0,380.0,689.0,,1994.0,left,B,False,left,0.937,0.063,891.0,835.0,56.0,5.0,1.0,6.0,4.0,0.0,4.0,1.0,right,56.0,right,56.0,contrastive.B
participant_015,a,35,experiment,26,9,1,focus,y,9b,9a,,450.0,300.0,471.0,576.0,393.0,480.0,1596.0,,1807.0,right,A,False,right,0.44,0.56,470.6,207.0,263.6,1.0,1.0,2.0,0.0,0.0,0.0,1.0,left,207.0,left,207.0,focus.A
participant_015,a,45,experiment,28,10,1,exclusive,y,10b,10a,10a,217.0,382.0,389.0,378.0,418.0,324.0,410.0,,1336.0,right,A,False,right,0.495,0.505,521.6,258.0,263.6,1.0,1.0,2.0,0.0,0.0,0.0,1.0,left,258.0,left,258.0,exclusive.A
participant_015,a,42,experiment,33,11,1,contrastive,n,11a,11b,11b,371.0,306.0,505.0,325.0,462.0,363.0,440.0,,2003.0,right,B,False,right,0.166,0.834,396.6,66.0,330.6,1.0,2.0,3.0,0.0,1.0,1.0,2.0,right,67.0,right,67.0,contrastive.B
participant_015,a,27,experiment,35,12,1,focus,n,12a,12b,,308.0,506.0,424.0,597.0,549.0,748.0,726.0,,2159.0,left,A,False,left,0.865,0.135,549.6,475.6,74.0,3.0,1.0,4.0,2.0,0.0,2.0,1.0,right,74.0,right,74.0,focus.A
participant_015,a,38,experiment,37,13,1,exclusive,n,13a,13b,13a,483.0,364.0,388.0,500.0,446.0,441.0,1578.0,,10095.0,right,B,True,right,0.425,0.575,6266.7,2664.6,3602.2,12.0,12.0,24.0,11.0,11.0,22.0,7.0,left,86.0,left,661.0,exclusive.B
participant_015,a,31,experiment,42,14,1,contrastive,y,14b,14a,14b,515.0,661.0,1476.0,843.0,475.0,818.0,1729.0,,2531.0,left,B,False,right,0.318,0.682,1511.6,480.6,1031.0,3.0,2.0,5.0,2.0,1.0,3.0,3.0,left,50.0,left,217.0,contrastive.B
participant_015,a,29,experiment,44,15,1,focus,y,15b,15a,,553.0,645.0,944.0,662.0,598.0,735.0,934.0,,1785.0,right,A,False,right,0.0,1.0,683.6,0.0,683.6,0.0,3.0,3.0,0.0,2.0,2.0,0.0,right,66.0,right,683.6,focus.A
participant_015,a,40,experiment,46,16,1,exclusive,y,16b,16a,16a,260.0,521.0,517.0,384.0,379.0,360.0,974.0,,2117.0,right,A,False,left,0.653,0.347,1130.6,738.0,392.6,2.0,2.0,4.0,1.0,1.0,2.0,3.0,left,86.0,left,86.0,exclusive.A
participant_015,a,34,experiment,51,17,1,contrastive,n,17a,17b,17b,482.0,473.0,766.0,795.0,565.0,533.0,5823.0,,2660.0,left,A,True,left,1.0,0.0,1110.6,1110.6,0.0,3.0,0.0,3.0,2.0,0.0,2.0,0.0,left,720.0,left,1110.6,contrastive.A
participant_015,a,21,experiment,53,18,1,focus,n,18a,18b,,575.0,526.0,446.0,503.0,431.0,494.0,460.0,,2995.0,right,B,False,right,0.268,0.732,2529.0,677.0,1852.0,2.0,6.0,8.0,1.0,5.0,6.0,2.0,right,58.0,right,58.0,focus.B
participant_016,b,34,experiment,2,1,1,focus,y,1b,1a,,321.0,282.0,241.0,340.0,322.0,366.0,331.0,,1655.0,right,A,False,right,0.0,1.0,1310.0,0.0,1310.0,0.0,5.0,5.0,0.0,4.0,4.0,0.0,right,67.0,right,1310.0,focus.A
participant_016,b,26,experiment,4,2,1,exclusive,y,2b,2a,2a,259.0,358.0,434.0,359.0,360.0,563.0,549.0,,903.0,right,A,False,right,0.0,1.0,771.0,0.0,771.0,0.0,2.0,2.0,0.0,1.0,1.0,0.0,right,115.0,right,771.0,exclusive.A
participant_016,b,49,experiment,9,3,1,contrastive,n,3a,3b,3b,334.0,273.0,418.0,350.0,318.0,419.0,488.0,,1460.0,right,B,False,left,0.531,0.469,562.6,299.0,263.6,2.0,1.0,3.0,1.0,0.0,1.0,1.0,left,171.0,left,299.0,contrastive.B
participant_016,b,25,experiment,11,4,1,focus,n,4a,4b,,491.0,379.0,501.0,371.0,352.0,333.0,529.0,,1295.0,left,A,False,left,1.0,0.0,1196.0,1196.0,0.0,4.0,0.0,4.0,3.0,0.0,3.0,0.0,left,122.0,left,1196.0,focus.A
participant_016,b,13,experiment,13,5,1,exclusive,n,5a,5b,5a,435.0,263.0,302.0,400.0,303.0,287.0,388.0,,1555.0,right,B,True,right,0.0,1.0,1146.0,0.0,1146.0,0.0,4.0,4.0,0.0,3.0,3.0,0.0,right,58.0,right,1146.0,exclusive.B
participant_016,b,15,experiment,18,6,1,contrastive,y,6b,6a,6b,299.0,322.0,222.0,326.0,229.0,309.0,297.0,,3690.0,left,B,False,left,0.637,0.363,1144.2,728.6,415.6,5.0,3.0,8.0,4.0,2.0,6.0,3.0,right,86.0,right,86.0,contrastive.B
participant_016,b,37,experiment,20,7,1,focus,y,7b,7a,,285.0,329.0,435.0,434.0,411.0,519.0,658.0,,1134.0,right,A,False,right,0.0,1.0,263.6,0.0,263.6,0.0,1.0,1.0,0.0,0.0,0.0,0.0,right,263.6,right,263.6,focus.A
participant_016,b,17,experiment,22,8,1,exclusive,y,8b,8a,8a,290.0,278.0,229.0,274.0,268.0,232.0,387.0,,1006.0,right,A,False,right,0.0,1.0,991.0,0.0,991.0,0.0,2.0,2.0,0.0,1.0,1.0,0.0,right,156.0,right,991.0,exclusive.A
participant_016,b,12,experiment,27,9,1,contrastive,n,9a,9b,9b,282.0,288.0,672.0,312.0,631.0,449.0,399.0,,3906.0,right,B,False,right,0.0,1.0,2421.6,0.0,2421.6,0.0,8.0,8.0,0.0,7.0,7.0,0.0,right,120.0,right,2421.6,contrastive.B
participant_016,b,21,experiment,29,10,1,focus,n,10a,10b,,346.0,317.0,295.0,258.0,302.0,277.0,237.0,,1978.0,left,A,False,left,0.927,0.073,1088.6,1009.6,79.0,3.0,1.0,4.0,2.0,0.0,2.0,1.0,right,79.0,right,79.0,focus.A
participant_016,b,39,experiment,31,11,1,exclusive,n,11a,11b,11a,353.0,278.0,463.0,382.0,340.0,345.0,517.0,,1900.0,left,A,False,left,1.0,0.0,1448.0,1448.0,0.0,4.0,0.0,4.0,3.0,0.0,3.0,0.0,left,728.0,left,1448.0,exclusive.A
participant_016,b,41,experiment,36,12,1,contrastive,y,12b,12a,12b,243.0,915.0,529.0,299.0,345.0,491.0,795.0,,1642.0,left,B,False,left,0.815,0.185,393.6,320.6,73.0,2.0,1.0,3.0,1.0,0.0,1.0,2.0,left,57.0,left,57.0,contrastive.B
participant_016,b,14,experiment,38,13,1,focus,y,13b,13a,,627.0,457.0,472.0,569.0,531.0,408.0,504.0,,819.0,right,A,False,right,0.0,1.0,808.0,0.0,808.0,0.0,1.0,1.0,0.0,0.0,0.0,0.0,right,808.0,right,808.0,focus.A
participant_016,b,29,experiment,40,14,1,exclusive,y,14b,14a,14a,303.0,292.0,398.0,372.0,404.0,371.0,634.0,,1915.0,left,B,True,left,0.582,0.418,579.6,337.6,242.0,2.0,3.0,5.0,1.0,2.0,3.0,3.0,left,74.0,left,74.0,exclusive.B
participant_016,b,46,experiment,45,15,1,contrastive,n,15a,15b,15b,328.0,294.0,493.0,270.0,321.0,290.0,480.0,,5934.0,right,B,False,right,0.291,0.709,2257.7,656.0,1601.7,2.0,7.0,9.0,1.0,6.0,7.0,2.0,right,263.6,right,576.6,contrastive.B
participant_016,b,18,experiment,47,16,1,focus,n,16a,16b,,296.0,230.0,197.0,419.0,270.0,316.0,326.0,,1870.0,left,A,False,left,1.0,0.0,263.6,263.6,0.0,1.0,0.0,1.0,0.0,0.0,0.0,0.0,left,263.6,left,263.6,focus.A
participant_016,b,23,experiment,49,17,1,exclusive,n,17a,17b,17a,525.0,268.0,349.0,438.0,393.0,461.0,472.0,,1236.0,left,A,False,left,1.0,0.0,1057.0,1057.0,0.0,3.0,0.0,3.0,2.0,0.0,2.0,0.0,left,155.0,left,1057.0,exclusive.A
participant_016,b,43,experiment,54,18,1,contrastive,y,18b,18a,18b,524.0,444.0,496.0,608.0,402.0,506.0,563.0,,2320.0,left,B,False,left,0.906,0.094,2127.0,1927.0,200.0,4.0,2.0,6.0,3.0,1.0,4.0,1.0,right,134.0,right,200.0,contrastive.B
participant_017,c,33,experiment,3,1,1,contrastive,n,1a,1b,1b,363.0,333.0,359.0,258.0,301.0,290.0,398.0,,1116.0,right,B,False,right,0.23,0.77,867.0,199.0,668.0,1.0,3.0,4.0,0.0,2.0,2.0,1.0,left,199.0,left,199.0,contrastive.B
participant_017,c,36,experiment,5,2,1,focus,n,2a,2b,,396.0,271.0,408.0,284.0,365.0,336.0,337.0,,5419.0,right,B,False,right,0.333,0.667,790.7,263.6,527.2,1.0,2.0,3.0,0.0,1.0,1.0,1.0,left,263.6,left,263.6,focus.B
participant_017,c,34,experiment,7,3,1,exclusive,n,3a,3b,3a,418.0,372.0,418.0,423.0,510.0,669.0,781.0,,1620.0,left,A,False,left,0.737,0.263,1599.0,1178.0,421.0,3.0,1.0,4.0,2.0,0.0,2.0,2.0,left,100.0,left,327.0,exclusive.A
participant_017,c,47,experiment,12,4,1,contrastive,y,4b,4a,4b,420.0,301.0,320.0,428.0,354.0,426.0,334.0,,2536.0,left,B,False,left,0.905,0.095,1809.0,1637.0,172.0,3.0,1.0,4.0,2.0,0.0,2.0,2.0,left,300.0,left,1042.0,contrastive.B
participant_017,c,27,experiment,14,5,1,focus,y,5b,5a,,284.0,454.0,395.0,383.0,290.0,401.0,643.0,,7618.0,left,B,False,left,0.673,0.327,3873.3,2606.7,1266.6,9.0,4.0,13.0,8.0,3.0,11.0,6.0,left,101.0,left,101.0,focus.B
participant_017,c,17,experiment,16,6,1,exclusive,y,6b,6a,6a,426.0,336.0,338.0,223.0,303.0,301.0,364.0,,1245.0,right,A,False,right,0.0,1.0,943.0,0.0,943.0,0.0,2.0,2.0,0.0,1.0,1.0,0.0,right,510.0,right,943.0,exclusive.A
participant_017,c,49,experiment,21,7,1,contrastive,n,7a,7b,7b,223.0,191.0,182.0,269.0,292.0,240.0,595.0,,767.0,right,B,False,right,0.0,1.0,690.0,0.0,690.0,0.0,3.0,3.0,0.0,2.0,2.0,0.0,right,149.0,right,690.0,contrastive.B
participant_017,c,12,experiment,23,8,1,focus,n,8a,8b,,369.0,363.0,443.0,332.0,426.0,352.0,414.0,,963.0,left,A,False,left,1.0,0.0,263.6,263.6,0.0,1.0,0.0,1.0,0.0,0.0,0.0,0.0,left,263.6,left,263.6,focus.A
participant_017,c,40,experiment,25,9,1,exclusive,n,9a,9b,9a,446.0,327.0,396.0,419.0,295.0,300.0,301.0,,864.0,left,A,False,left,1.0,0.0,263.6,263.6,0.0,1.0,0.0,1.0,0.0,0.0,0.0,0.0,left,263.6,left,263.6,exclusive.A
participant_017,c,43,experiment,30,10,1,contrastive,y,10b,10a,10b,247.0,336.0,263.0,354.0,284.0,292.0,328.0,,958.0,left,B,False,left,1.0,0.0,263.6,263.6,0.0,1.0,0.0,1.0,0.0,0.0,0.0,0.0,left,263.6,left,263.6,contrastive.B
participant_017,c,22,experiment,32,11,1,focus,y,11b,11a,,437.0,314.0,338.0,364.0,351.0,451.0,347.0,,926.0,right,A,False,right,0.194,0.806,653.0,127.0,526.0,1.0,3.0,4.0,0.0,2.0,2.0,1.0,left,127.0,left,127.0,focus.A
participant_017,c,10,experiment,34,12,1,exclusive,y,12b,12a,12a,414.0,501.0,540.0,434.0,345.0,532.0,420.0,,1303.0,right,A,False,right,0.0,1.0,1126.0,0.0,1126.0,0.0,4.0,4.0,0.0,3.0,3.0,0.0,right,66.0,right,1126.0,exclusive.A
participant_017,c,20,experiment,39,13,1,contrastive,n,13a,13b,13b,1130.0,1220.0,633.0,490.0,692.0,655.0,915.0,,3092.0,right,B,False,left,0.855,0.145,1812.6,1549.0,263.6,4.0,1.0,5.0,3.0,0.0,3.0,1.0,left,465.0,left,1549.0,contrastive.B
participant_017,c,29,experiment,41,14,1,focus,n,14a,14b,,343.0,300.0,295.0,393.0,454.0,325.0,525.0,,1220.0,right,B,False,right,0.0,1.0,348.6,0.0,348.6,0.0,2.0,2.0,0.0,1.0,1.0,0.0,right,85.0,right,348.6,focus.B
participant_017,c,15,experiment,43,15,1,exclusive,n,15a,15b,15a,350.0,314.0,325.0,266.0,307.0,241.0,319.0,,691.0,left,A,False,left,1.0,0.0,676.0,676.0,0.0,1.0,0.0,1.0,0.0,0.0,0.0,0.0,left,676.0,left,676.0,exclusive.A
participant_017,c,25,experiment,48,16,1,contrastive,y,16b,16a,16b,492.0,307.0,362.0,368.0,342.0,506.0,337.0,,898.0,left,B,False,left,1.0,0.0,699.0,699.0,0.0,1.0,0.0,1.0,0.0,0.0,0.0,0.0,left,699.0,left,699.0,contrastive.B
participant_017,c,24,experiment,50,17,1,focus,y,17b,17a,,250.0,236.0,199.0,357.0,302.0,462.0,503.0,,1187.0,right,A,False,right,0.199,0.801,1095.0,218.0,877.0,1.0,2.0,3.0,0.0,1.0,1.0,1.0,left,218.0,left,218.0,focus.A
participant_017,c,38,experiment,52,18,1,exclusive,y,18b,18a,18a,404.0,364.0,274.0,349.0,261.0,334.0,582.0,,1477.0,right,A,False,right,0.407,0.593,444.6,181.0,263.6,2.0,1.0,3.0,1.0,0.0,1.0,1.0,left,66.0,left,181.0,exclusive.A
participant_018,c,33,experiment,3,1,1,contrastive,n,1a,1b,1b,321.0,272.0,255.0,297.0,264.0,321.0,364.0,,724.0,right,B,False,right,0.0,1.0,670.0,0.0,670.0,0.0,2.0,2.0,0.0,1.0,1.0,0.0,right,336.0,right,670.0,contrastive.B
participant_018,c,36,experiment,5,2,1,focus,n,2a,2b,,339.0,270.0,326.0,315.0,359.0,848.0,434.0,,744.0,left,A,False,left,1.0,0.0,629.0,629.0,0.0,2.0,0.0,2.0,1.0,0.0,1.0,0.0,left,197.0,left,629.0,focus.A
participant_018,c,34,experiment,7,3,1,exclusive,n,3a,3b,3a,646.0,608.0,676.0,730.0,458.0,702.0,619.0,,1246.0,left,A,False,left,0.696,0.304,1212.0,843.0,369.0,2.0,1.0,3.0,1.0,0.0,1.0,2.0,left,674.0,left,674.0,exclusive.A
participant_018,c,47,experiment,12,4,1,contrastive,y,4b,4a,4b,290.0,278.0,295.0,267.0,254.0,242.0,272.0,,937.0,left,B,False,left,0.812,0.188,352.0,286.0,66.0,2.0,1.0,3.0,1.0,0.0,1.0,1.0,right,66.0,right,66.0,contrastive.B
participant_018,c,27,experiment,14,5,1,focus,y,5b,5a,,445.0,343.0,333.0,359.0,331.0,348.0,490.0,,1206.0,right,A,False,right,0.0,1.0,1096.0,0.0,1096.0,0.0,2.0,2.0,0.0,1.0,1.0,0.0,right,300.0,right,1096.0,focus.A
participant_018,c,17,experiment,16,6,1,exclusive,y,6b,6a,6a,407.0,338.0,315.0,316.0,322.0,298.0,336.0,,646.0,right,A,False,right,0.0,1.0,136.0,0.0,136.0,0.0,2.0,2.0,0.0,1.0,1.0,0.0,right,67.0,right,136.0,exclusive.A
participant_018,c,49,experiment,21,7,1,contrastive,n,7a,7b,7b,290.0,214.0,248.0,270.0,266.0,250.0,347.0,,927.0,right,B,False,right,0.337,0.663,816.0,275.0,541.0,2.0,1.0,3.0,1.0,0.0,1.0,1.0,left,132.0,left,275.0,contrastive.B
participant_018,c,12,experiment,23,8,1,focus,n,8a,8b,,525.0,578.0,457.0,585.0,417.0,431.0,577.0,,916.0,left,A,False,left,1.0,0.0,531.0,531.0,0.0,4.0,0.0,4.0,3.0,0.0,3.0,0.0,left,69.0,left,531.0,focus.A
participant_018,c,40,experiment,25,9,1,exclusive,n,9a,9b,9a,331.0,353.0,386.0,377.0,455.0,882.0,348.0,,671.0,left,A,False,left,1.0,0.0,311.0,311.0,0.0,1.0,0.0,1.0,0.0,0.0,0.0,0.0,left,311.0,left,311.0,exclusive.A
participant_018,c,43,experiment,30,10,1,contrastive,y,10b,10a,10b,279.0,380.0,556.0,420.0,311.0,326.0,416.0,,870.0,left,B,False,left,1.0,0.0,684.0,684.0,0.0,2.0,0.0,2.0,1.0,0.0,1.0,0.0,left,75.0,left,684.0,contrastive.B
participant_018,c,22,experiment,32,11,1,focus,y,11b,11a,,323.0,237.0,245.0,231.0,248.0,237.0,355.0,,534.0,right,A,False,right,0.0,1.0,348.0,0.0,348.0,0.0,2.0,2.0,0.0,1.0,1.0,0.0,right,237.0,right,348.0,focus.A
participant_018,c,10,experiment,34,12,1,exclusive,y,12b,12a,12a,569.0,465.0,897.0,472.0,445.0,711.0,551.0,,711.0,right,A,False,left,1.0,0.0,574.0,574.0,0.0,4.0,0.0,4.0,3.0,0.0,3.0,0.0,left,73.0,left,574.0,exclusive.A
participant_018,c,20,experiment,39,13,1,contrastive,n,13a,13b,13b,653.0,409.0,329.0,309.0,345.0,340.0,619.0,,690.0,right,B,False,right,0.0,1.0,299.0,0.0,299.0,0.0,1.0,1.0,0.0,0.0,0.0,0.0,right,299.0,right,299.0,contrastive.B
participant_018,c,29,experiment,41,14,1,focus,n,14a,14b,,349.0,281.0,292.0,324.0,332.0,342.0,350.0,,5364.0,left,A,False,right,0.465,0.535,3331.2,1547.6,1783.6,5.0,6.0,11.0,4.0,5.0,9.0,8.0,left,302.0,left,302.0,focus.A
participant_018,c,15,experiment,43,15,1,exclusive,n,15a,15b,15a,470.0,413.0,398.0,416.0,363.0,418.0,395.0,,1145.0,left,A,False,right,0.469,0.531,901.0,423.0,478.0,2.0,1.0,3.0,1.0,0.0,1.0,1.0,left,92.0,left,423.0,exclusive.A
participant_018,c,25,experiment,48,16,1,contrastive,y,16b,16a,16b,340.0,284.0,301.0,345.0,301.0,313.0,339.0,,1388.0,left,B,False,left,1.0,0.0,466.6,466.6,0.0,2.0,0.0,2.0,1.0,0.0,1.0,0.0,left,263.6,left,466.6,contrastive.B
participant_018,c,24,experiment,50,17,1,focus,y,17b,17a,,318.0,279.0,280.0,265.0,499.0,357.0,373.0,,1228.0,right,A,False,right,0.0,1.0,1037.0,0.0,1037.0,0.0,4.0,4.0,0.0,3.0,3.0,0.0,right,104.0,right,1037.0,focus.A
participant_018,c,38,experiment,52,18,1,exclusive,y,18b,18a,18a,277.0,1412.0,2044.0,596.0,688.0,385.0,410.0,,910.0,right,A,False,left,0.811,0.189,873.0,708.0,165.0,1.0,1.0,2.0,0.0,0.0,0.0,1.0,left,708.0,left,708.0,exclusive.A
participant_019,c,33,experiment,3,1,1,contrastive,n,1a,1b,1b,853.0,851.0,3717.0,5565.0,961.0,973.0,1211.0,,1811.0,left,A,True,right,0.264,0.736,998.6,263.6,735.0,1.0,3.0,4.0,0.0,2.0,2.0,2.0,right,104.0,right,333.0,contrastive.A
participant_019,c,36,experiment,5,2,1,focus,n,2a,2b,,974.0,1560.0,834.0,828.0,716.0,870.0,1570.0,,2085.0,left,A,False,right,0.0,1.0,1104.6,0.0,1104.6,0.0,3.0,3.0,0.0,2.0,2.0,0.0,right,146.0,right,1104.6,focus.A
participant_019,c,34,experiment,7,3,1,exclusive,n,3a,3b,3a,1293.0,1635.0,1310.0,1568.0,1409.0,1273.0,1155.0,,1647.0,left,A,False,left,1.0,0.0,888.0,888.0,0.0,5.0,0.0,5.0,4.0,0.0,4.0,0.0,left,435.0,left,888.0,exclusive.A
participant_019,c,47,experiment,12,4,1,contrastive,y,4b,4a,4b,2037.0,1173.0,898.0,850.0,860.0,811.0,2745.0,,1202.0,right,A,True,right,0.367,0.633,559.0,205.0,354.0,1.0,2.0,3.0,0.0,1.0,1.0,1.0,left,205.0,left,205.0,contrastive.A
participant_019,c,27,experiment,14,5,1,focus,y,5b,5a,,634.0,939.0,506.0,592.0,538.0,772.0,704.0,,4605.0,right,A,False,left,0.724,0.276,2555.6,1849.6,706.0,9.0,4.0,13.0,8.0,3.0,11.0,2.0,left,190.0,left,1155.6,focus.A
participant_019,c,17,experiment,16,6,1,exclusive,y,6b,6a,6a,838.0,832.0,1039.0,824.0,728.0,936.0,1446.0,,1703.0,right,A,False,right,0.074,0.926,1102.0,82.0,1020.0,1.0,5.0,6.0,0.0,4.0,4.0,1.0,left,82.0,left,82.0,exclusive.A
participant_019,c,49,experiment,21,7,1,contrastive,n,7a,7b,7b,1055.0,714.0,804.0,1107.0,617.0,1162.0,1029.0,,1427.0,left,A,True,left,1.0,0.0,596.0,596.0,0.0,3.0,0.0,3.0,2.0,0.0,2.0,0.0,left,182.0,left,596.0,contrastive.A
participant_019,c,12,experiment,23,8,1,focus,n,8a,8b,,1002.0,958.0,716.0,1122.0,651.0,690.0,780.0,,2444.0,left,A,False,left,0.627,0.373,1330.0,834.0,496.0,9.0,4.0,13.0,8.0,3.0,11.0,6.0,left,80.0,left,300.0,focus.A
participant_019,c,40,experiment,25,9,1,exclusive,n,9a,9b,9a,1018.0,987.0,800.0,784.0,692.0,737.0,967.0,,1521.0,left,A,False,left,0.725,0.275,965.0,700.0,265.0,6.0,3.0,9.0,5.0,2.0,7.0,6.0,left,103.0,left,103.0,exclusive.A
participant_019,c,43,experiment,30,10,1,contrastive,y,10b,10a,10b,1632.0,856.0,1143.0,987.0,942.0,1089.0,1543.0,,1778.0,right,A,True,right,0.0,1.0,550.6,0.0,550.6,0.0,4.0,4.0,0.0,3.0,3.0,0.0,right,62.0,right,550.6,contrastive.A
participant_019,c,22,experiment,32,11,1,focus,y,11b,11a,,1201.0,1415.0,614.0,989.0,795.0,960.0,1051.0,,1978.0,right,A,False,right,0.336,0.664,873.0,293.0,580.0,3.0,5.0,8.0,2.0,4.0,6.0,1.0,left,101.0,left,293.0,focus.A
participant_019,c,10,experiment,34,12,1,exclusive,y,12b,12a,12a,1034.0,1280.0,1028.0,858.0,693.0,1178.0,1009.0,,2992.0,right,A,False,right,0.0,1.0,912.6,0.0,912.6,0.0,6.0,6.0,0.0,5.0,5.0,0.0,right,59.0,right,912.6,exclusive.A
participant_019,c,20,experiment,39,13,1,contrastive,n,13a,13b,13b,1105.0,1051.0,1055.0,1175.0,929.0,1022.0,1042.0,,2619.0,left,A,True,left,0.784,0.216,1326.0,1039.0,287.0,7.0,3.0,10.0,6.0,2.0,8.0,2.0,left,371.0,left,904.0,contrastive.A
participant_019,c,29,experiment,41,14,1,focus,n,14a,14b,,632.0,673.0,644.0,822.0,694.0,651.0,987.0,,4995.0,right,B,False,left,0.603,0.397,2589.0,1561.0,1028.0,6.0,8.0,14.0,5.0,7.0,12.0,6.0,right,122.0,right,122.0,focus.B
participant_019,c,15,experiment,43,15,1,exclusive,n,15a,15b,15a,1089.0,1008.0,1171.0,1131.0,940.0,1068.0,1225.0,,3750.0,left,A,False,right,0.478,0.522,2593.0,1240.0,1353.0,9.0,7.0,16.0,8.0,6.0,14.0,7.0,right,226.0,right,428.0,exclusive.A
participant_019,c,25,experiment,48,16,1,contrastive,y,16b,16a,16b,605.0,730.0,622.0,606.0,554.0,736.0,1002.0,,1760.0,right,A,True,left,0.939,0.061,1337.0,1255.0,82.0,3.0,1.0,4.0,2.0,0.0,2.0,2.0,left,785.0,left,785.0,contrastive.A
participant_019,c,24,experiment,50,17,1,focus,y,17b,17a,,892.0,826.0,728.0,1225.0,880.0,816.0,2495.0,,1852.0,right,A,False,right,0.0,1.0,845.6,0.0,845.6,0.0,7.0,7.0,0.0,6.0,6.0,0.0,right,66.0,right,845.6,focus.A
participant_019,c,38,experiment,52,18,1,exclusive,y,18b,18a,18a,1040.0,1060.0,845.0,965.0,930.0,937.0,1121.0,,2579.0,right,A,False,right,0.034,0.966,1816.0,62.0,1754.0,1.0,8.0,9.0,0.0,7.0,7.0,2.0,right,65.0,right,1544.0,exclusive.A
participant_020,b,34,experiment,2,1,1,focus,y,1b,1a,,355.0,299.0,367.0,349.0,353.0,380.0,482.0,,1271.0,right,A,False,right,0.115,0.885,870.0,100.0,770.0,1.0,1.0,2.0,0.0,0.0,0.0,1.0,right,770.0,right,770.0,focus.A
participant_020,b,26,experiment,4,2,1,exclusive,y,2b,2a,2a,350.0,313.0,356.0,351.0,346.0,337.0,581.0,,1789.0,right,A,False,right,0.224,0.776,473.6,106.0,367.6,2.0,3.0,5.0,1.0,2.0,3.0,3.0,left,53.0,left,53.0,exclusive.A
participant_020,b,49,experiment,9,3,1,contrastive,n,3a,3b,3b,388.0,361.0,344.0,361.0,351.0,466.0,3049.0,,2319.0,right,B,False,,,,1153.6604048582997,,,,,5.442914979757085,,,,2.0,,219.86008097165993,,415.19109311740897,contrastive.B
participant_020,b,25,experiment,11,4,1,focus,n,4a,4b,,338.0,305.0,323.0,299.0,334.0,374.0,401.0,,1613.0,left,A,False,right,0.326,0.674,776.0,253.0,523.0,5.0,6.0,11.0,4.0,5.0,9.0,5.0,left,51.0,left,151.0,focus.A
participant_020,b,13,experiment,13,5,1,exclusive,n,5a,5b,5a,482.0,325.0,352.0,418.0,344.0,361.0,701.0,,2206.0,left,A,False,left,0.968,0.032,1540.0,1490.0,50.0,7.0,1.0,8.0,6.0,0.0,6.0,2.0,left,61.0,left,1142.0,exclusive.A
participant_020,b,15,experiment,18,6,1,contrastive,y,6b,6a,6b,476.0,396.0,309.0,323.0,288.0,348.0,1288.0,,1318.0,left,B,False,left,1.0,0.0,263.6,263.6,0.0,1.0,0.0,1.0,0.0,0.0,0.0,0.0,left,263.6,left,263.6,contrastive.B
participant_020,b,37,experiment,20,7,1,focus,y,7b,7a,,414.0,221.0,389.0,269.0,416.0,551.0,1336.0,,1327.0,right,A,False,right,0.111,0.889,1011.0,112.0,899.0,1.0,3.0,4.0,0.0,2.0,2.0,1.0,left,112.0,left,112.0,focus.A
participant_020,b,17,experiment,22,8,1,exclusive,y,8b,8a,8a,500.0,286.0,319.0,313.0,388.0,521.0,4109.0,,1586.0,right,A,False,right,0.043,0.957,1196.0,51.0,1145.0,1.0,3.0,4.0,0.0,2.0,2.0,1.0,left,51.0,left,51.0,exclusive.A
participant_020,b,12,experiment,27,9,1,contrastive,n,9a,9b,9b,553.0,406.0,396.0,460.0,372.0,320.0,494.0,,802.0,right,B,False,right,0.199,0.801,527.0,105.0,422.0,1.0,1.0,2.0,0.0,0.0,0.0,1.0,left,105.0,left,105.0,contrastive.B
participant_020,b,21,experiment,29,10,1,focus,n,10a,10b,,427.0,292.0,337.0,433.0,399.0,399.0,522.0,,1610.0,left,A,False,left,0.862,0.138,375.6,323.6,52.0,2.0,1.0,3.0,1.0,0.0,1.0,2.0,left,60.0,left,60.0,focus.A
participant_020,b,39,experiment,31,11,1,exclusive,n,11a,11b,11a,521.0,363.0,332.0,344.0,329.0,331.0,393.0,,3399.0,left,A,False,left,0.864,0.136,2751.0,2378.0,373.0,6.0,4.0,10.0,5.0,3.0,8.0,6.0,left,192.0,left,719.0,exclusive.A
participant_020,b,41,experiment,36,12,1,contrastive,y,12b,12a,12b,831.0,565.0,409.0,420.0,400.0,461.0,3236.0,,1551.0,left,B,False,left,1.0,0.0,263.6,263.6,0.0,1.0,0.0,1.0,0.0,0.0,0.0,0.0,left,263.6,left,263.6,contrastive.B
participant_020,b,14,experiment,38,13,1,focus,y,13b,13a,,501.0,337.0,362.0,391.0,432.0,509.0,461.0,,1371.0,right,A,False,right,0.116,0.884,1073.0,125.0,948.0,2.0,4.0,6.0,1.0,3.0,4.0,4.0,right,71.0,right,71.0,focus.A
participant_020,b,29,experiment,40,14,1,exclusive,y,14b,14a,14a,466.0,329.0,330.0,335.0,474.0,494.0,669.0,,1600.0,right,A,False,right,0.0,1.0,367.6,0.0,367.6,0.0,3.0,3.0,0.0,2.0,2.0,0.0,right,52.0,right,367.6,exclusive.A
participant_020,b,46,experiment,45,15,1,contrastive,n,15a,15b,15b,408.0,307.0,366.0,338.0,341.0,373.0,463.0,,1370.0,right,B,False,right,0.315,0.685,384.6,121.0,263.6,2.0,1.0,3.0,1.0,0.0,1.0,1.0,left,69.0,left,121.0,contrastive.B
participant_020,b,18,experiment,47,16,1,focus,n,16a,16b,,305.0,269.0,228.0,315.0,323.0,356.0,411.0,,1071.0,left,A,False,left,1.0,0.0,263.6,263.6,0.0,1.0,0.0,1.0,0.0,0.0,0.0,0.0,left,263.6,left,263.6,focus.A
participant_020,b,23,experiment,49,17,1,exclusive,n,17a,17b,17a,446.0,362.0,338.0,384.0,421.0,408.0,1110.0,,2174.0,left,A,False,left,0.831,0.169,1223.0,1016.0,207.0,9.0,2.0,11.0,8.0,1.0,9.0,4.0,left,80.0,left,139.0,exclusive.A
participant_020,b,43,experiment,54,18,1,contrastive,y,18b,18a,18b,481.0,323.0,361.0,422.0,383.0,642.0,1895.0,,1580.0,left,B,False,left,1.0,0.0,497.6,497.6,0.0,2.0,0.0,2.0,1.0,0.0,1.0,0.0,left,234.0,left,497.6,contrastive.B
participant_021,b,34,experiment,2,1,1,focus,y,1b,1a,,561.0,355.0,317.0,326.0,322.0,329.0,529.0,,995.0,right,A,False,,,,1153.6604048582997,,,,,5.442914979757085,,,,2.0,,219.86008097165993,,415.19109311740897,focus.A
participant_021,b,26,experiment,4,2,1,exclusive,y,2b,2a,2a,366.0,275.0,315.0,296.0,325.0,362.0,1012.0,,1160.0,right,A,False,,,,1153.6604048582997,,,,,5.442914979757085,,,,2.0,,219.86008097165993,,415.19109311740897,exclusive.A
participant_021,b,49,experiment,9,3,1,contrastive,n,3a,3b,3b,456.0,276.0,193.0,184.0,194.0,264.0,203.0,,637.0,right,B,False,,,,1153.6604048582997,,,,,5.442914979757085,,,,2.0,,219.86008097165993,,415.19109311740897,contrastive.B
participant_021,b,25,experiment,11,4,1,focus,n,4a,4b,,396.0,328.0,447.0,408.0,406.0,386.0,580.0,,1197.0,left,A,False,,,,1153.6604048582997,,,,,5.442914979757085,,,,2.0,,219.86008097165993,,415.19109311740897,focus.A
participant_021,b,13,experiment,13,5,1,exclusive,n,5a,5b,5a,556.0,401.0,357.0,421.0,405.0,379.0,830.0,,2200.0,left,A,False,left,0.501,0.499,879.6,440.6,439.0,3.0,3.0,6.0,2.0,2.0,4.0,3.0,right,56.0,right,56.0,exclusive.A
participant_021,b,15,experiment,18,6,1,contrastive,y,6b,6a,6b,538.0,478.0,433.0,490.0,383.0,652.0,517.0,,2022.0,left,B,False,left,0.803,0.197,1698.0,1363.0,335.0,3.0,4.0,7.0,2.0,3.0,5.0,3.0,right,55.0,right,55.0,contrastive.B
participant_021,b,37,experiment,20,7,1,focus,y,7b,7a,,683.0,865.0,604.0,396.0,385.0,491.0,1882.0,,921.0,right,A,False,,,,1153.6604048582997,,,,,5.442914979757085,,,,2.0,,219.86008097165993,,415.19109311740897,focus.A
participant_021,b,17,experiment,22,8,1,exclusive,y,8b,8a,8a,462.0,345.0,444.0,568.0,386.0,430.0,498.0,,1220.0,right,A,False,right,0.19,0.81,975.0,185.0,790.0,3.0,3.0,6.0,2.0,2.0,4.0,3.0,left,75.0,left,75.0,exclusive.A
participant_021,b,12,experiment,27,9,1,contrastive,n,9a,9b,9b,574.0,429.0,381.0,547.0,329.0,356.0,681.0,,3470.0,left,A,True,left,0.584,0.416,2941.0,1719.0,1222.0,6.0,6.0,12.0,5.0,5.0,10.0,6.0,left,257.0,left,313.0,contrastive.A
participant_021,b,21,experiment,29,10,1,focus,n,10a,10b,,439.0,276.0,378.0,358.0,295.0,377.0,376.0,,879.0,left,A,False,,,,1153.6604048582997,,,,,5.442914979757085,,,,2.0,,219.86008097165993,,415.19109311740897,focus.A
participant_021,b,39,experiment,31,11,1,exclusive,n,11a,11b,11a,521.0,267.0,262.0,303.0,300.0,385.0,401.0,,619.0,left,A,False,,,,1153.6604048582997,,,,,5.442914979757085,,,,2.0,,219.86008097165993,,415.19109311740897,exclusive.A
participant_021,b,41,experiment,36,12,1,contrastive,y,12b,12a,12b,338.0,365.0,314.0,316.0,266.0,366.0,408.0,,609.0,left,B,False,,,,1153.6604048582997,,,,,5.442914979757085,,,,2.0,,219.86008097165993,,415.19109311740897,contrastive.B
participant_021,b,14,experiment,38,13,1,focus,y,13b,13a,,810.0,642.0,571.0,670.0,561.0,459.0,513.0,,1582.0,right,A,False,right,0.195,0.805,1129.0,220.0,909.0,2.0,5.0,7.0,1.0,4.0,5.0,4.0,right,60.0,right,60.0,focus.A
participant_021,b,29,experiment,40,14,1,exclusive,y,14b,14a,14a,460.0,335.0,297.0,296.0,288.0,339.0,378.0,,1266.0,right,A,False,,,,1153.6604048582997,,,,,5.442914979757085,,,,2.0,,219.86008097165993,,415.19109311740897,exclusive.A
participant_021,b,46,experiment,45,15,1,contrastive,n,15a,15b,15b,569.0,326.0,265.0,302.0,280.0,325.0,582.0,,709.0,right,B,False,,,,1153.6604048582997,,,,,5.442914979757085,,,,2.0,,219.86008097165993,,415.19109311740897,contrastive.B
participant_021,b,18,experiment,47,16,1,focus,n,16a,16b,,491.0,428.0,373.0,468.0,380.0,747.0,745.0,,1298.0,left,A,False,left,0.827,0.173,1110.0,918.0,192.0,2.0,2.0,4.0,1.0,1.0,2.0,1.0,right,140.0,right,192.0,focus.A
participant_021,b,23,experiment,49,17,1,exclusive,n,17a,17b,17a,348.0,283.0,328.0,409.0,396.0,520.0,459.0,,1602.0,left,A,False,,,,1153.6604048582997,,,,,5.442914979757085,,,,2.0,,219.86008097165993,,415.19109311740897,exclusive.A
participant_021,b,43,experiment,54,18,1,contrastive,y,18b,18a,18b,521.0,295.0,365.0,336.0,380.0,332.0,433.0,,1286.0,left,B,False,,,,1153.6604048582997,,,,,5.442914979757085,,,,2.0,,219.86008097165993,,415.19109311740897,contrastive.B
participant_022,a,36,experiment,1,1,1,exclusive,n,1a,1b,1a,437.0,362.0,367.0,594.0,455.0,718.0,331.0,,1205.0,left,A,False,left,0.843,0.157,898.0,757.0,141.0,2.0,1.0,3.0,1.0,0.0,1.0,1.0,right,141.0,right,141.0,exclusive.A
participant_022,a,50,experiment,6,2,1,contrastive,y,2b,2a,2b,419.0,461.0,356.0,315.0,279.0,354.0,407.0,,1003.0,left,B,False,left,1.0,0.0,263.6,263.6,0.0,1.0,0.0,1.0,0.0,0.0,0.0,0.0,left,263.6,left,263.6,contrastive.B
participant_022,a,18,experiment,8,3,1,focus,y,3b,3a,,606.0,376.0,432.0,754.0,501.0,1378.0,673.0,,1574.0,right,A,False,right,0.0,1.0,263.6,0.0,263.6,0.0,1.0,1.0,0.0,0.0,0.0,0.0,right,263.6,right,263.6,focus.A
participant_022,a,43,experiment,10,4,1,exclusive,y,4b,4a,4a,467.0,270.0,833.0,437.0,295.0,603.0,358.0,,898.0,right,A,False,right,0.0,1.0,263.6,0.0,263.6,0.0,1.0,1.0,0.0,0.0,0.0,0.0,right,263.6,right,263.6,exclusive.A
participant_022,a,10,experiment,15,5,1,contrastive,n,5a,5b,5b,777.0,510.0,654.0,1091.0,697.0,794.0,962.0,,3748.0,left,A,True,left,0.582,0.418,3059.0,1781.0,1278.0,7.0,5.0,12.0,6.0,4.0,10.0,4.0,left,68.0,left,418.0,contrastive.A
participant_022,a,13,experiment,17,6,1,focus,n,6a,6b,,631.0,593.0,779.0,594.0,885.0,923.0,927.0,,1420.0,left,A,False,left,0.75,0.25,1034.0,776.0,258.0,3.0,3.0,6.0,2.0,2.0,4.0,3.0,right,77.0,right,77.0,focus.A
participant_022,a,49,experiment,19,7,1,exclusive,n,7a,7b,7a,420.0,245.0,405.0,343.0,421.0,362.0,247.0,,762.0,left,A,False,left,1.0,0.0,742.0,742.0,0.0,1.0,0.0,1.0,0.0,0.0,0.0,0.0,left,742.0,left,742.0,exclusive.A
participant_022,a,47,experiment,24,8,1,contrastive,y,8b,8a,8b,499.0,541.0,635.0,319.0,367.0,337.0,604.0,,1148.0,left,B,False,left,0.73,0.27,1086.0,793.0,293.0,1.0,1.0,2.0,0.0,0.0,0.0,1.0,right,293.0,right,293.0,contrastive.B
participant_022,a,35,experiment,26,9,1,focus,y,9b,9a,,399.0,474.0,264.0,565.0,376.0,674.0,392.0,,1510.0,right,A,False,right,0.201,0.799,1395.0,281.0,1114.0,1.0,4.0,5.0,0.0,3.0,3.0,2.0,right,177.0,right,312.0,focus.A
participant_022,a,45,experiment,28,10,1,exclusive,y,10b,10a,10a,431.0,258.0,539.0,552.0,369.0,285.0,446.0,,838.0,right,A,False,right,0.0,1.0,852.0,0.0,852.0,0.0,1.0,1.0,0.0,0.0,0.0,0.0,right,852.0,right,852.0,exclusive.A
participant_022,a,42,experiment,33,11,1,contrastive,n,11a,11b,11b,477.0,713.0,1324.0,804.0,767.0,651.0,606.0,,2084.0,right,B,False,right,0.0,1.0,429.6,0.0,429.6,0.0,2.0,2.0,0.0,1.0,1.0,0.0,right,166.0,right,429.6,contrastive.B
participant_022,a,27,experiment,35,12,1,focus,n,12a,12b,,441.0,433.0,431.0,720.0,754.0,737.0,600.0,,846.0,left,A,False,left,1.0,0.0,808.0,808.0,0.0,1.0,0.0,1.0,0.0,0.0,0.0,0.0,left,808.0,left,808.0,focus.A
participant_022,a,38,experiment,37,13,1,exclusive,n,13a,13b,13a,571.0,345.0,351.0,587.0,335.0,482.0,364.0,,896.0,left,A,False,left,0.9,0.1,660.0,594.0,66.0,1.0,1.0,2.0,0.0,0.0,0.0,1.0,right,66.0,right,66.0,exclusive.A
participant_022,a,31,experiment,42,14,1,contrastive,y,14b,14a,14b,516.0,418.0,1519.0,561.0,351.0,548.0,1631.0,,4074.0,left,B,False,left,0.786,0.214,2078.6,1634.0,444.6,3.0,2.0,5.0,2.0,1.0,3.0,2.0,left,167.0,left,966.0,contrastive.B
participant_022,a,29,experiment,44,15,1,focus,y,15b,15a,,447.0,460.0,475.0,669.0,387.0,802.0,496.0,,1716.0,right,A,False,right,0.354,0.646,1642.0,581.0,1061.0,2.0,3.0,5.0,1.0,2.0,3.0,2.0,right,117.0,right,287.0,focus.A
participant_022,a,40,experiment,46,16,1,exclusive,y,16b,16a,16a,380.0,252.0,484.0,634.0,324.0,316.0,414.0,,930.0,right,A,False,right,0.0,1.0,805.0,0.0,805.0,0.0,3.0,3.0,0.0,2.0,2.0,0.0,right,78.0,right,805.0,exclusive.A
participant_022,a,34,experiment,51,17,1,contrastive,n,17a,17b,17b,353.0,476.0,725.0,316.0,364.0,608.0,913.0,,5323.0,right,B,False,left,0.68,0.32,2076.2,1411.0,665.2,8.0,4.0,12.0,7.0,3.0,10.0,4.0,right,70.0,right,70.0,contrastive.B
participant_022,a,21,experiment,53,18,1,focus,n,18a,18b,,730.0,526.0,728.0,595.0,816.0,927.0,639.0,,1268.0,left,A,False,left,0.898,0.102,1012.0,909.0,103.0,2.0,1.0,3.0,1.0,0.0,1.0,1.0,right,103.0,right,103.0,focus.A
participant_023,c,33,experiment,3,1,1,contrastive,n,1a,1b,1b,731.0,387.0,317.0,376.0,298.0,247.0,375.0,,756.0,right,B,False,right,0.0,1.0,745.0,0.0,745.0,0.0,1.0,1.0,0.0,0.0,0.0,0.0,right,745.0,right,745.0,contrastive.B
participant_023,c,36,experiment,5,2,1,focus,n,2a,2b,,677.0,408.0,363.0,389.0,380.0,515.0,216.0,,770.0,left,A,False,left,1.0,0.0,804.0,804.0,0.0,1.0,0.0,1.0,0.0,0.0,0.0,0.0,left,804.0,left,804.0,focus.A
participant_023,c,34,experiment,7,3,1,exclusive,n,3a,3b,3a,464.0,401.0,399.0,748.0,384.0,1014.0,230.0,,891.0,left,A,False,left,0.705,0.295,831.0,586.0,245.0,1.0,2.0,3.0,0.0,1.0,1.0,1.0,right,100.0,right,245.0,exclusive.A
participant_023,c,47,experiment,12,4,1,contrastive,y,4b,4a,4b,433.0,394.0,505.0,408.0,256.0,176.0,454.0,,864.0,left,B,False,left,1.0,0.0,769.0,769.0,0.0,1.0,0.0,1.0,0.0,0.0,0.0,0.0,left,769.0,left,769.0,contrastive.B
participant_023,c,27,experiment,14,5,1,focus,y,5b,5a,,404.0,458.0,284.0,400.0,400.0,732.0,406.0,,935.0,right,A,False,right,0.0,1.0,889.0,0.0,889.0,0.0,2.0,2.0,0.0,1.0,1.0,0.0,right,66.0,right,889.0,focus.A
participant_023,c,17,experiment,16,6,1,exclusive,y,6b,6a,6a,378.0,411.0,207.0,406.0,343.0,215.0,219.0,,852.0,right,A,False,right,0.0,1.0,735.0,0.0,735.0,0.0,2.0,2.0,0.0,1.0,1.0,0.0,right,100.0,right,735.0,exclusive.A
participant_023,c,49,experiment,21,7,1,contrastive,n,7a,7b,7b,428.0,332.0,278.0,406.0,230.0,170.0,437.0,,717.0,right,B,False,right,0.0,1.0,708.0,0.0,708.0,0.0,1.0,1.0,0.0,0.0,0.0,0.0,right,708.0,right,708.0,contrastive.B
participant_023,c,12,experiment,23,8,1,focus,n,8a,8b,,388.0,374.0,385.0,627.0,287.0,238.0,727.0,,903.0,left,A,False,left,1.0,0.0,830.0,830.0,0.0,2.0,0.0,2.0,1.0,0.0,1.0,0.0,left,64.0,left,830.0,focus.A
participant_023,c,40,experiment,25,9,1,exclusive,n,9a,9b,9a,406.0,472.0,242.0,394.0,355.0,242.0,265.0,,1011.0,left,A,False,left,0.913,0.087,689.0,629.0,60.0,1.0,1.0,2.0,0.0,0.0,0.0,1.0,right,60.0,right,60.0,exclusive.A
participant_023,c,43,experiment,30,10,1,contrastive,y,10b,10a,10b,631.0,366.0,654.0,430.0,271.0,224.0,402.0,,1016.0,left,B,False,left,1.0,0.0,735.0,735.0,0.0,1.0,0.0,1.0,0.0,0.0,0.0,0.0,left,735.0,left,735.0,contrastive.B
participant_023,c,22,experiment,32,11,1,focus,y,11b,11a,,500.0,219.0,366.0,713.0,420.0,545.0,239.0,,942.0,right,A,False,right,0.0,1.0,263.6,0.0,263.6,0.0,1.0,1.0,0.0,0.0,0.0,0.0,right,263.6,right,263.6,focus.A
participant_023,c,10,experiment,34,12,1,exclusive,y,12b,12a,12a,416.0,297.0,259.0,530.0,321.0,584.0,231.0,,1086.0,right,A,False,right,0.0,1.0,1048.0,0.0,1048.0,0.0,2.0,2.0,0.0,1.0,1.0,0.0,right,266.0,right,1048.0,exclusive.A
participant_023,c,20,experiment,39,13,1,contrastive,n,13a,13b,13b,396.0,469.0,464.0,399.0,300.0,329.0,590.0,,934.0,right,B,False,right,0.0,1.0,802.0,0.0,802.0,0.0,2.0,2.0,0.0,1.0,1.0,0.0,right,68.0,right,802.0,contrastive.B
participant_023,c,29,experiment,41,14,1,focus,n,14a,14b,,484.0,441.0,365.0,443.0,464.0,753.0,299.0,,1348.0,left,A,False,left,0.662,0.338,494.6,327.6,167.0,2.0,2.0,4.0,1.0,1.0,2.0,3.0,right,68.0,right,68.0,focus.A
participant_023,c,15,experiment,43,15,1,exclusive,n,15a,15b,15a,410.0,391.0,259.0,437.0,369.0,240.0,428.0,,1262.0,left,A,False,left,0.629,0.371,1188.0,747.0,441.0,1.0,2.0,3.0,0.0,1.0,1.0,1.0,right,162.0,right,441.0,exclusive.A
participant_023,c,25,experiment,48,16,1,contrastive,y,16b,16a,16b,394.0,443.0,474.0,261.0,379.0,274.0,224.0,,863.0,left,B,False,left,0.884,0.116,580.0,513.0,67.0,2.0,1.0,3.0,1.0,0.0,1.0,1.0,right,67.0,right,67.0,contrastive.B
participant_023,c,24,experiment,50,17,1,focus,y,17b,17a,,453.0,412.0,246.0,676.0,258.0,436.0,318.0,,853.0,right,A,False,right,0.0,1.0,707.0,0.0,707.0,0.0,3.0,3.0,0.0,2.0,2.0,0.0,right,72.0,right,707.0,focus.A
participant_023,c,38,experiment,52,18,1,exclusive,y,18b,18a,18a,559.0,323.0,284.0,364.0,276.0,398.0,467.0,,893.0,right,A,False,right,0.0,1.0,841.0,0.0,841.0,0.0,1.0,1.0,0.0,0.0,0.0,0.0,right,841.0,right,841.0,exclusive.A
participant_024,b,34,experiment,2,1,1,focus,y,1b,1a,,477.0,505.0,375.0,371.0,499.0,558.0,564.0,,11860.0,right,A,False,right,0.473,0.527,9155.0,4333.0,4822.0,31.0,30.0,61.0,30.0,29.0,59.0,39.0,left,583.0,left,641.0,focus.A
participant_024,b,26,experiment,4,2,1,exclusive,y,2b,2a,2a,491.0,409.0,324.0,432.0,568.0,758.0,373.0,,1845.0,right,A,False,right,0.323,0.677,1426.0,461.0,965.0,5.0,7.0,12.0,4.0,6.0,10.0,8.0,right,59.0,right,120.0,exclusive.A
participant_024,b,49,experiment,9,3,1,contrastive,n,3a,3b,3b,563.0,357.0,352.0,408.0,385.0,816.0,1336.0,,2407.0,right,B,False,left,0.628,0.372,2145.0,1346.0,799.0,8.0,5.0,13.0,7.0,4.0,11.0,9.0,left,249.0,left,872.0,contrastive.B
participant_024,b,25,experiment,11,4,1,focus,n,4a,4b,,387.0,485.0,388.0,394.0,282.0,409.0,383.0,,2636.0,left,A,False,left,0.597,0.403,2332.0,1392.0,940.0,7.0,6.0,13.0,6.0,5.0,11.0,8.0,left,181.0,left,181.0,focus.A
participant_024,b,13,experiment,13,5,1,exclusive,n,5a,5b,5a,1984.0,803.0,813.0,696.0,560.0,674.0,1102.0,,1789.0,left,A,False,left,0.526,0.474,845.6,444.6,401.0,3.0,3.0,6.0,2.0,2.0,4.0,4.0,left,124.0,left,124.0,exclusive.A
participant_024,b,15,experiment,18,6,1,contrastive,y,6b,6a,6b,475.0,477.0,512.0,504.0,455.0,563.0,534.0,,2812.0,right,A,True,right,0.218,0.782,1866.0,407.0,1459.0,4.0,9.0,13.0,3.0,8.0,11.0,8.0,right,124.0,right,469.0,contrastive.A
participant_024,b,37,experiment,20,7,1,focus,y,7b,7a,,480.0,450.0,414.0,608.0,520.0,1633.0,4660.0,,2075.0,right,A,False,right,0.122,0.878,1897.0,232.0,1665.0,3.0,4.0,7.0,2.0,3.0,5.0,5.0,left,58.0,left,58.0,focus.A
participant_024,b,17,experiment,22,8,1,exclusive,y,8b,8a,8a,664.0,481.0,447.0,487.0,478.0,667.0,607.0,,957.0,right,A,False,right,0.0,1.0,811.0,0.0,811.0,0.0,2.0,2.0,0.0,1.0,1.0,0.0,right,233.0,right,811.0,exclusive.A
participant_024,b,12,experiment,27,9,1,contrastive,n,9a,9b,9b,985.0,1380.0,2267.0,777.0,485.0,538.0,1168.0,,2932.0,left,A,True,left,0.61,0.39,2198.0,1340.0,858.0,7.0,6.0,13.0,6.0,5.0,11.0,10.0,left,61.0,left,61.0,contrastive.A
participant_024,b,21,experiment,29,10,1,focus,n,10a,10b,,471.0,511.0,415.0,433.0,395.0,469.0,480.0,,2339.0,left,A,False,left,0.779,0.221,1953.0,1522.0,431.0,8.0,4.0,12.0,7.0,3.0,10.0,8.0,left,120.0,left,120.0,focus.A
participant_024,b,39,experiment,31,11,1,exclusive,n,11a,11b,11a,445.0,355.0,339.0,309.0,342.0,314.0,606.0,,2332.0,left,A,False,right,0.482,0.518,2041.0,984.0,1057.0,8.0,5.0,13.0,7.0,4.0,11.0,10.0,left,60.0,left,60.0,exclusive.A
participant_024,b,41,experiment,36,12,1,contrastive,y,12b,12a,12b,544.0,360.0,326.0,307.0,265.0,357.0,286.0,,13013.0,right,A,True,right,0.461,0.539,9782.6,4510.0,5272.6,32.0,36.0,68.0,31.0,35.0,66.0,58.0,right,55.0,right,110.0,contrastive.A
participant_024,b,14,experiment,38,13,1,focus,y,13b,13a,,704.0,512.0,464.0,552.0,512.0,529.0,527.0,,2080.0,right,A,False,left,0.572,0.428,1645.0,941.0,704.0,5.0,3.0,8.0,4.0,2.0,6.0,3.0,right,176.0,right,351.0,focus.A
participant_024,b,29,experiment,40,14,1,exclusive,y,14b,14a,14a,398.0,353.0,290.0,343.0,313.0,302.0,562.0,,10226.0,right,A,False,left,0.535,0.465,8639.0,4625.0,4014.0,21.0,22.0,43.0,20.0,21.0,41.0,31.0,left,56.0,left,56.0,exclusive.A
participant_024,b,46,experiment,45,15,1,contrastive,n,15a,15b,15b,407.0,366.0,437.0,371.0,420.0,645.0,666.0,,2127.0,right,B,False,right,0.151,0.849,1931.0,292.0,1639.0,4.0,7.0,11.0,3.0,6.0,9.0,7.0,left,61.0,left,61.0,contrastive.B
participant_024,b,18,experiment,47,16,1,focus,n,16a,16b,,478.0,437.0,388.0,405.0,423.0,681.0,511.0,,2022.0,left,A,False,left,0.85,0.15,1569.0,1333.0,236.0,7.0,3.0,10.0,6.0,2.0,8.0,6.0,left,65.0,left,65.0,focus.A
participant_024,b,23,experiment,49,17,1,exclusive,n,17a,17b,17a,551.0,439.0,416.0,469.0,561.0,490.0,568.0,,3372.0,left,A,False,left,0.739,0.261,2727.0,2016.0,711.0,15.0,9.0,24.0,14.0,8.0,22.0,15.0,right,62.0,right,62.0,exclusive.A
participant_024,b,43,experiment,54,18,1,contrastive,y,18b,18a,18b,937.0,463.0,464.0,431.0,577.0,1017.0,527.0,,8750.0,left,B,False,left,0.526,0.474,7048.6,3710.6,3338.0,19.0,24.0,43.0,18.0,23.0,41.0,33.0,left,178.0,left,178.0,contrastive.B
participant_025,a,36,experiment,1,1,1,exclusive,n,1a,1b,1a,386.0,284.0,337.0,403.0,389.0,507.0,498.0,,2111.0,left,A,False,left,0.73,0.27,1765.0,1288.0,477.0,5.0,3.0,8.0,4.0,2.0,6.0,5.0,right,333.0,right,333.0,exclusive.A
participant_025,a,50,experiment,6,2,1,contrastive,y,2b,2a,2b,397.0,524.0,373.0,371.0,291.0,366.0,443.0,,1036.0,left,B,False,left,0.686,0.314,605.0,415.0,190.0,3.0,2.0,5.0,2.0,1.0,3.0,3.0,right,126.0,right,126.0,contrastive.B
participant_025,a,18,experiment,8,3,1,focus,y,3b,3a,,513.0,554.0,600.0,516.0,555.0,564.0,852.0,,778.0,right,A,False,right,0.0,1.0,771.0,0.0,771.0,0.0,1.0,1.0,0.0,0.0,0.0,0.0,right,771.0,right,771.0,focus.A
participant_025,a,43,experiment,10,4,1,exclusive,y,4b,4a,4a,469.0,404.0,510.0,453.0,411.0,440.0,481.0,,1352.0,right,A,False,right,0.0,1.0,619.0,0.0,619.0,0.0,2.0,2.0,0.0,1.0,1.0,0.0,right,552.0,right,619.0,exclusive.A
participant_025,a,10,experiment,15,5,1,contrastive,n,5a,5b,5b,1113.0,1042.0,1182.0,1068.0,967.0,988.0,3029.0,,6845.0,right,B,False,right,0.338,0.662,4343.2,1468.6,2874.6,6.0,9.0,15.0,5.0,8.0,13.0,11.0,left,110.0,left,110.0,contrastive.B
participant_025,a,13,experiment,17,6,1,focus,n,6a,6b,,632.0,1052.0,899.0,858.0,716.0,687.0,779.0,,1047.0,left,A,False,left,0.927,0.073,871.0,807.0,64.0,2.0,1.0,3.0,1.0,0.0,1.0,2.0,left,310.0,left,310.0,focus.A
participant_025,a,49,experiment,19,7,1,exclusive,n,7a,7b,7a,438.0,358.0,351.0,400.0,320.0,346.0,465.0,,925.0,left,A,False,left,1.0,0.0,790.0,790.0,0.0,3.0,0.0,3.0,2.0,0.0,2.0,0.0,left,61.0,left,790.0,exclusive.A
participant_025,a,47,experiment,24,8,1,contrastive,y,8b,8a,8b,331.0,534.0,237.0,419.0,342.0,374.0,454.0,,893.0,left,B,False,left,1.0,0.0,850.0,850.0,0.0,1.0,0.0,1.0,0.0,0.0,0.0,0.0,left,850.0,left,850.0,contrastive.B
participant_025,a,35,experiment,26,9,1,focus,y,9b,9a,,431.0,404.0,366.0,458.0,471.0,438.0,769.0,,1864.0,right,A,False,right,0.214,0.786,1512.0,323.0,1189.0,4.0,4.0,8.0,3.0,3.0,6.0,6.0,right,140.0,right,140.0,focus.A
participant_025,a,45,experiment,28,10,1,exclusive,y,10b,10a,10a,385.0,305.0,405.0,376.0,338.0,390.0,417.0,,1269.0,right,A,False,right,0.205,0.795,331.6,68.0,263.6,1.0,1.0,2.0,0.0,0.0,0.0,1.0,left,68.0,left,68.0,exclusive.A
participant_025,a,42,experiment,33,11,1,contrastive,n,11a,11b,11b,337.0,295.0,293.0,336.0,410.0,462.0,427.0,,1475.0,left,A,True,right,0.467,0.533,1065.0,497.0,568.0,4.0,2.0,6.0,3.0,1.0,4.0,3.0,right,122.0,right,122.0,contrastive.A
participant_025,a,27,experiment,35,12,1,focus,n,12a,12b,,502.0,462.0,370.0,430.0,432.0,495.0,539.0,,966.0,left,A,False,left,0.911,0.089,894.0,814.0,80.0,2.0,1.0,3.0,1.0,0.0,1.0,2.0,left,183.0,left,183.0,focus.A
participant_025,a,38,experiment,37,13,1,exclusive,n,13a,13b,13a,438.0,331.0,396.0,342.0,332.0,465.0,464.0,,737.0,left,A,False,left,0.915,0.085,601.0,550.0,51.0,2.0,1.0,3.0,1.0,0.0,1.0,2.0,left,62.0,left,62.0,exclusive.A
participant_025,a,31,experiment,42,14,1,contrastive,y,14b,14a,14b,500.0,431.0,430.0,462.0,475.0,433.0,633.0,,2638.0,left,B,False,left,0.632,0.368,1639.6,1036.6,603.0,2.0,3.0,5.0,1.0,2.0,3.0,3.0,right,334.0,right,334.0,contrastive.B
participant_025,a,29,experiment,44,15,1,focus,y,15b,15a,,465.0,365.0,463.0,606.0,464.0,570.0,658.0,,1209.0,right,A,False,right,0.496,0.504,933.0,463.0,470.0,3.0,3.0,6.0,2.0,2.0,4.0,3.0,left,199.0,left,199.0,focus.A
participant_025,a,40,experiment,46,16,1,exclusive,y,16b,16a,16a,391.0,389.0,341.0,373.0,390.0,396.0,454.0,,1112.0,right,A,False,left,0.534,0.466,968.0,517.0,451.0,3.0,3.0,6.0,2.0,2.0,4.0,3.0,left,399.0,left,453.0,exclusive.A
participant_025,a,34,experiment,51,17,1,contrastive,n,17a,17b,17b,426.0,328.0,386.0,495.0,430.0,463.0,463.0,,993.0,right,B,False,right,0.317,0.683,867.0,275.0,592.0,2.0,3.0,5.0,1.0,2.0,3.0,3.0,left,204.0,left,204.0,contrastive.B
participant_025,a,21,experiment,53,18,1,focus,n,18a,18b,,566.0,506.0,465.0,499.0,571.0,932.0,523.0,,877.0,left,A,False,left,1.0,0.0,702.0,702.0,0.0,1.0,0.0,1.0,0.0,0.0,0.0,0.0,left,702.0,left,702.0,focus.A
participant_026,a,36,experiment,1,1,1,exclusive,n,1a,1b,1a,563.0,437.0,493.0,480.0,450.0,479.0,490.0,,827.0,left,A,False,right,0.474,0.526,696.0,330.0,366.0,2.0,3.0,5.0,1.0,2.0,3.0,3.0,right,148.0,right,294.0,exclusive.A
participant_026,a,50,experiment,6,2,1,contrastive,y,2b,2a,2b,578.0,430.0,341.0,304.0,323.0,335.0,399.0,,1249.0,left,B,False,left,1.0,0.0,1030.0,1030.0,0.0,4.0,0.0,4.0,3.0,0.0,3.0,0.0,left,113.0,left,1030.0,contrastive.B
participant_026,a,18,experiment,8,3,1,focus,y,3b,3a,,535.0,445.0,481.0,444.0,472.0,459.0,475.0,,839.0,right,A,False,right,0.219,0.781,781.0,171.0,610.0,1.0,3.0,4.0,0.0,2.0,2.0,2.0,right,100.0,right,100.0,focus.A
