participant,group,trial,label,no,item,exp,condition,cb,left,right,target,r1,r2,r3,r4,r5,r6,r7,question_rt,choice_rt,choice,chosen_type,mismatch,dominant,prop_left,prop_right,total_dwell,dwell_left,dwell_right,fixations_left,fixations_right,total_fixation,revisits_left,revisits_right,total_revisits,transitions,ffs,ffd,fvs,fvd,cxt
participant_001,a,36,experiment,1,1,1,exclusive,n,1a,1b,1a,442.0,384.0,381.0,380.0,344.0,386.0,371.0,,567.0,left,A,False,left,1.0,0.0,491.0,491.0,0.0,1.0,0.0,1.0,0.0,0.0,0.0,0.0,left,491.0,left,491.0,exclusive.A
participant_001,a,50,experiment,6,2,1,contrastive,y,2b,2a,2b,411.0,351.0,329.0,326.0,335.0,346.0,327.0,,634.0,left,B,False,left,1.0,0.0,426.0,426.0,0.0,2.0,0.0,2.0,1.0,0.0,1.0,0.0,left,84.0,left,426.0,contrastive.B
participant_001,a,18,experiment,8,3,1,focus,y,3b,3a,,803.0,792.0,541.0,529.0,452.0,725.0,496.0,,1492.0,left,B,False,left,1.0,0.0,270.3,270.3,0.0,1.0,0.0,1.0,0.0,0.0,0.0,0.0,left,270.3,left,270.3,focus.B
participant_001,a,43,experiment,10,4,1,exclusive,y,4b,4a,4a,407.0,439.0,399.0,412.0,423.0,414.0,425.0,,746.0,right,A,False,right,0.124,0.876,621.0,77.0,544.0,1.0,2.0,3.0,0.0,1.0,1.0,2.0,right,115.0,right,115.0,exclusive.A
participant_001,a,10,experiment,15,5,1,contrastive,n,5a,5b,5b,1077.0,784.0,736.0,921.0,876.0,755.0,847.0,,1083.0,right,B,False,right,0.0,1.0,735.0,0.0,735.0,0.0,2.0,2.0,0.0,1.0,1.0,0.0,right,651.0,right,735.0,contrastive.B
participant_001,a,13,experiment,17,6,1,focus,n,6a,6b,,654.0,863.0,734.0,700.0,613.0,707.0,656.0,,849.0,left,A,False,left,1.0,0.0,821.0,821.0,0.0,1.0,0.0,1.0,0.0,0.0,0.0,0.0,left,821.0,left,821.0,focus.A
participant_001,a,49,experiment,19,7,1,exclusive,n,7a,7b,7a,546.0,468.0,447.0,405.0,391.0,451.0,490.0,,618.0,left,A,False,left,1.0,0.0,602.0,602.0,0.0,1.0,0.0,1.0,0.0,0.0,0.0,0.0,left,602.0,left,602.0,exclusive.A
participant_001,a,47,experiment,24,8,1,contrastive,y,8b,8a,8b,462.0,420.0,347.0,474.0,374.0,366.0,358.0,,678.0,left,B,False,left,1.0,0.0,556.0,556.0,0.0,2.0,0.0,2.0,1.0,0.0,1.0,0.0,left,159.0,left,556.0,contrastive.B
participant_001,a,35,experiment,26,9,1,focus,y,9b,9a,,467.0,465.0,350.0,366.0,435.0,529.0,403.0,,742.0,right,A,False,right,0.0,1.0,741.0,0.0,741.0,0.0,1.0,1.0,0.0,0.0,0.0,0.0,right,741.0,right,741.0,focus.A
participant_001,a,45,experiment,28,10,1,exclusive,y,10b,10a,10a,416.0,361.0,337.0,339.0,380.0,369.0,351.0,,957.0,right,A,False,right,0.358,0.642,864.0,309.0,555.0,1.0,2.0,3.0,0.0,1.0,1.0,1.0,left,309.0,left,309.0,exclusive.A
participant_001,a,42,experiment,33,11,1,contrastive,n,11a,11b,11b,594.0,539.0,461.0,408.0,399.0,446.0,457.0,,887.0,right,B,False,right,0.128,0.872,735.0,94.0,641.0,1.0,2.0,3.0,0.0,1.0,1.0,2.0,right,86.0,right,86.0,contrastive.B
participant_001,a,27,experiment,35,12,1,focus,n,12a,12b,,494.0,467.0,387.0,561.0,553.0,649.0,526.0,,1362.0,left,A,False,left,1.0,0.0,270.3,270.3,0.0,1.0,0.0,1.0,0.0,0.0,0.0,0.0,left,270.3,left,270.3,focus.A
participant_001,a,38,experiment,37,13,1,exclusive,n,13a,13b,13a,599.0,426.0,339.0,393.0,362.0,381.0,486.0,,766.0,left,A,False,left,1.0,0.0,758.0,758.0,0.0,1.0,0.0,1.0,0.0,0.0,0.0,0.0,left,758.0,left,758.0,exclusive.A
participant_001,a,31,experiment,42,14,1,contrastive,y,14b,14a,14b,491.0,482.0,541.0,528.0,388.0,456.0,541.0,,2889.0,left,B,False,left,0.742,0.258,1979.3,1469.0,510.3,6.0,3.0,9.0,5.0,2.0,7.0,5.0,left,129.0,left,207.0,contrastive.B
participant_001,a,29,experiment,44,15,1,focus,y,15b,15a,,1070.0,622.0,464.0,674.0,460.0,501.0,465.0,,1582.0,right,A,False,left,0.643,0.357,1089.0,700.0,389.0,3.0,3.0,6.0,2.0,2.0,4.0,3.0,left,507.0,left,625.0,focus.A
participant_001,a,40,experiment,46,16,1,exclusive,y,16b,16a,16a,571.0,354.0,406.0,432.0,375.0,386.0,553.0,,894.0,right,A,False,right,0.0,1.0,591.0,0.0,591.0,0.0,1.0,1.0,0.0,0.0,0.0,0.0,right,591.0,right,591.0,exclusive.A
participant_001,a,34,experiment,51,17,1,contrastive,n,17a,17b,17b,547.0,504.0,554.0,446.0,506.0,460.0,669.0,,1741.0,right,B,False,right,0.226,0.774,349.3,79.0,270.3,1.0,1.0,2.0,0.0,0.0,0.0,1.0,left,79.0,left,79.0,contrastive.B
participant_001,a,21,experiment,53,18,1,focus,n,18a,18b,,497.0,608.0,566.0,541.0,747.0,615.0,567.0,,1490.0,left,A,False,left,0.501,0.499,1354.0,678.0,676.0,3.0,1.0,4.0,2.0,0.0,2.0,2.0,left,84.0,left,362.0,focus.A
participant_002,b,34,experiment,2,1,1,focus,y,1b,1a,,252.0,449.0,329.0,234.0,349.0,271.0,329.0,,439.0,right,A,False,right,0.0,1.0,293.0,0.0,293.0,0.0,2.0,2.0,0.0,1.0,1.0,0.0,right,95.0,right,293.0,focus.A
participant_002,b,26,experiment,4,2,1,exclusive,y,2b,2a,2a,363.0,435.0,466.0,354.0,417.0,398.0,384.0,,765.0,right,A,False,right,0.155,0.845,562.0,87.0,475.0,1.0,1.0,2.0,0.0,0.0,0.0,1.0,left,87.0,left,87.0,exclusive.A
participant_002,b,49,experiment,9,3,1,contrastive,n,3a,3b,3b,249.0,323.0,245.0,400.0,332.0,273.0,297.0,,546.0,right,B,False,right,0.0,1.0,479.0,0.0,479.0,0.0,2.0,2.0,0.0,1.0,1.0,0.0,right,373.0,right,479.0,contrastive.B
participant_002,b,25,experiment,11,4,1,focus,n,4a,4b,,274.0,608.0,343.0,336.0,305.0,326.0,279.0,,515.0,left,A,False,left,1.0,0.0,456.0,456.0,0.0,2.0,0.0,2.0,1.0,0.0,1.0,0.0,left,229.0,left,456.0,focus.A
participant_002,b,13,experiment,13,5,1,exclusive,n,5a,5b,5a,401.0,440.0,441.0,423.0,394.0,379.0,406.0,,1747.0,left,A,False,right,0.343,0.657,787.3,270.3,517.0,1.0,1.0,2.0,0.0,0.0,0.0,1.0,left,270.3,left,270.3,exclusive.A
participant_002,b,15,experiment,18,6,1,contrastive,y,6b,6a,6b,418.0,333.0,304.0,330.0,336.0,569.0,331.0,,1111.0,left,B,False,left,1.0,0.0,712.0,712.0,0.0,1.0,0.0,1.0,0.0,0.0,0.0,0.0,left,712.0,left,712.0,contrastive.B
participant_002,b,37,experiment,20,7,1,focus,y,7b,7a,,323.0,297.0,252.0,261.0,269.0,264.0,269.0,,687.0,right,A,False,right,0.0,1.0,534.0,0.0,534.0,0.0,2.0,2.0,0.0,1.0,1.0,0.0,right,67.0,right,534.0,focus.A
participant_002,b,17,experiment,22,8,1,exclusive,y,8b,8a,8a,403.0,449.0,372.0,342.0,339.0,364.0,346.0,,544.0,right,A,False,right,0.0,1.0,500.0,0.0,500.0,0.0,1.0,1.0,0.0,0.0,0.0,0.0,right,500.0,right,500.0,exclusive.A
participant_002,b,12,experiment,27,9,1,contrastive,n,9a,9b,9b,425.0,377.0,350.0,414.0,394.0,356.0,366.0,,2782.0,right,B,False,right,0.361,0.639,2175.0,785.0,1390.0,3.0,4.0,7.0,2.0,3.0,5.0,3.0,left,99.0,left,732.0,contrastive.B
participant_002,b,21,experiment,29,10,1,focus,n,10a,10b,,322.0,268.0,1067.0,407.0,375.0,403.0,419.0,,1044.0,left,A,False,left,1.0,0.0,866.0,866.0,0.0,2.0,0.0,2.0,1.0,0.0,1.0,0.0,left,50.0,left,866.0,focus.A
participant_002,b,39,experiment,31,11,1,exclusive,n,11a,11b,11a,283.0,294.0,351.0,287.0,252.0,265.0,284.0,,1643.0,left,A,False,left,1.0,0.0,1377.0,1377.0,0.0,5.0,0.0,5.0,4.0,0.0,4.0,0.0,left,129.0,left,1377.0,exclusive.A
participant_002,b,41,experiment,36,12,1,contrastive,y,12b,12a,12b,276.0,1084.0,451.0,398.0,436.0,398.0,342.0,,491.0,left,B,False,left,1.0,0.0,476.0,476.0,0.0,1.0,0.0,1.0,0.0,0.0,0.0,0.0,left,476.0,left,476.0,contrastive.B
participant_002,b,14,experiment,38,13,1,focus,y,13b,13a,,371.0,401.0,364.0,379.0,371.0,393.0,534.0,,965.0,right,A,False,right,0.385,0.615,563.0,217.0,346.0,1.0,2.0,3.0,0.0,1.0,1.0,1.0,left,217.0,left,217.0,focus.A
participant_002,b,29,experiment,40,14,1,exclusive,y,14b,14a,14a,210.0,380.0,348.0,263.0,326.0,423.0,287.0,,1101.0,right,A,False,right,0.498,0.502,1071.0,533.0,538.0,1.0,1.0,2.0,0.0,0.0,0.0,1.0,left,533.0,left,533.0,exclusive.A
participant_002,b,46,experiment,45,15,1,contrastive,n,15a,15b,15b,528.0,468.0,558.0,510.0,336.0,348.0,315.0,,883.0,right,B,False,right,0.0,1.0,270.3,0.0,270.3,0.0,1.0,1.0,0.0,0.0,0.0,0.0,right,270.3,right,270.3,contrastive.B
participant_002,b,18,experiment,47,16,1,focus,n,16a,16b,,340.0,359.0,298.0,293.0,314.0,332.0,348.0,,988.0,left,A,False,left,0.912,0.088,648.0,591.0,57.0,2.0,1.0,3.0,1.0,0.0,1.0,1.0,right,57.0,right,57.0,focus.A
participant_002,b,23,experiment,49,17,1,exclusive,n,17a,17b,17a,368.0,349.0,285.0,551.0,381.0,332.0,387.0,,2484.0,left,A,False,left,0.573,0.427,2137.0,1224.0,913.0,3.0,3.0,6.0,2.0,2.0,4.0,1.0,right,51.0,right,913.0,exclusive.A
participant_002,b,43,experiment,54,18,1,contrastive,y,18b,18a,18b,450.0,348.0,322.0,301.0,311.0,284.0,304.0,,526.0,left,B,False,left,1.0,0.0,522.0,522.0,0.0,1.0,0.0,1.0,0.0,0.0,0.0,0.0,left,522.0,left,522.0,contrastive.B
participant_003,c,33,experiment,3,1,1,contrastive,n,1a,1b,1b,291.0,278.0,253.0,314.0,286.0,304.0,325.0,,2573.0,left,A,True,left,0.519,0.481,2014.0,1046.0,968.0,4.0,7.0,11.0,3.0,6.0,9.0,5.0,right,54.0,right,54.0,contrastive.A
participant_003,c,36,experiment,5,2,1,focus,n,2a,2b,,270.0,240.0,246.0,246.0,459.0,324.0,302.0,,558.0,left,A,False,left,0.702,0.298,363.0,255.0,108.0,1.0,1.0,2.0,0.0,0.0,0.0,1.0,right,108.0,right,108.0,focus.A
participant_003,c,34,experiment,7,3,1,exclusive,n,3a,3b,3a,326.0,342.0,373.0,636.0,538.0,532.0,370.0,,698.0,left,A,False,left,1.0,0.0,633.0,633.0,0.0,2.0,0.0,2.0,1.0,0.0,1.0,0.0,left,230.0,left,633.0,exclusive.A
participant_003,c,47,experiment,12,4,1,contrastive,y,4b,4a,4b,300.0,252.0,248.0,193.0,284.0,324.0,282.0,,429.0,right,A,True,right,0.0,1.0,387.0,0.0,387.0,0.0,1.0,1.0,0.0,0.0,0.0,0.0,right,387.0,right,387.0,contrastive.A
participant_003,c,27,experiment,14,5,1,focus,y,5b,5a,,281.0,211.0,281.0,218.0,232.0,234.0,263.0,,602.0,right,A,False,right,0.0,1.0,450.0,0.0,450.0,0.0,1.0,1.0,0.0,0.0,0.0,0.0,right,450.0,right,450.0,focus.A
participant_003,c,17,experiment,16,6,1,exclusive,y,6b,6a,6a,276.0,293.0,246.0,242.0,312.0,310.0,319.0,,790.0,right,A,False,right,0.0,1.0,732.0,0.0,732.0,0.0,1.0,1.0,0.0,0.0,0.0,0.0,right,732.0,right,732.0,exclusive.A
participant_003,c,49,experiment,21,7,1,contrastive,n,7a,7b,7b,313.0,326.0,245.0,300.0,449.0,370.0,337.0,,383.0,left,A,True,left,1.0,0.0,350.0,350.0,0.0,1.0,0.0,1.0,0.0,0.0,0.0,0.0,left,350.0,left,350.0,contrastive.A
participant_003,c,12,experiment,23,8,1,focus,n,8a,8b,,360.0,361.0,324.0,305.0,318.0,303.0,288.0,,783.0,left,A,False,left,1.0,0.0,226.0,226.0,0.0,2.0,0.0,2.0,1.0,0.0,1.0,0.0,left,175.0,left,226.0,focus.A
participant_003,c,40,experiment,25,9,1,exclusive,n,9a,9b,9a,276.0,267.0,208.0,225.0,219.0,422.0,266.0,,647.0,left,A,False,left,0.727,0.273,498.0,362.0,136.0,1.0,2.0,3.0,0.0,1.0,1.0,1.0,right,85.0,right,136.0,exclusive.A
participant_003,c,43,experiment,30,10,1,contrastive,y,10b,10a,10b,215.0,157.0,146.0,167.0,282.0,206.0,327.0,,617.0,right,A,True,right,0.119,0.881,521.0,62.0,459.0,1.0,2.0,3.0,0.0,1.0,1.0,1.0,left,62.0,left,62.0,contrastive.A
participant_003,c,22,experiment,32,11,1,focus,y,11b,11a,,326.0,270.0,279.0,289.0,280.0,351.0,412.0,,467.0,right,A,False,right,0.0,1.0,148.0,0.0,148.0,0.0,1.0,1.0,0.0,0.0,0.0,0.0,right,148.0,right,148.0,focus.A
participant_003,c,10,experiment,34,12,1,exclusive,y,12b,12a,12a,513.0,483.0,672.0,542.0,451.0,449.0,592.0,,1062.0,right,A,False,right,0.0,1.0,1007.0,0.0,1007.0,0.0,2.0,2.0,0.0,1.0,1.0,0.0,right,133.0,right,1007.0,exclusive.A
participant_003,c,20,experiment,39,13,1,contrastive,n,13a,13b,13b,283.0,287.0,356.0,240.0,313.0,300.0,387.0,,1148.0,left,A,True,left,1.0,0.0,378.3,378.3,0.0,2.0,0.0,2.0,1.0,0.0,1.0,0.0,left,270.3,left,378.3,contrastive.A
participant_003,c,29,experiment,41,14,1,focus,n,14a,14b,,260.0,241.0,381.0,405.0,329.0,305.0,338.0,,915.0,left,A,False,left,0.797,0.203,512.0,408.0,104.0,3.0,2.0,5.0,2.0,1.0,3.0,2.0,left,100.0,left,100.0,focus.A
participant_003,c,15,experiment,43,15,1,exclusive,n,15a,15b,15a,327.0,192.0,304.0,279.0,409.0,349.0,324.0,,413.0,left,A,False,left,1.0,0.0,315.0,315.0,0.0,2.0,0.0,2.0,1.0,0.0,1.0,0.0,left,54.0,left,315.0,exclusive.A
participant_003,c,25,experiment,48,16,1,contrastive,y,16b,16a,16b,300.0,232.0,248.0,268.0,251.0,261.0,255.0,,977.0,right,A,True,right,0.268,0.732,704.0,189.0,515.0,2.0,3.0,5.0,1.0,2.0,3.0,3.0,right,151.0,right,151.0,contrastive.A
participant_003,c,24,experiment,50,17,1,focus,y,17b,17a,,316.0,238.0,242.0,214.0,207.0,214.0,336.0,,498.0,right,A,False,right,0.0,1.0,209.0,0.0,209.0,0.0,2.0,2.0,0.0,1.0,1.0,0.0,right,121.0,right,209.0,focus.A
participant_003,c,38,experiment,52,18,1,exclusive,y,18b,18a,18a,302.0,200.0,200.0,226.0,231.0,265.0,323.0,,849.0,right,A,False,right,0.0,1.0,844.0,0.0,844.0,0.0,1.0,1.0,0.0,0.0,0.0,0.0,right,844.0,right,844.0,exclusive.A
participant_004,a,36,experiment,1,1,1,exclusive,n,1a,1b,1a,233.0,210.0,226.0,243.0,390.0,238.0,199.0,,1628.0,left,A,False,left,1.0,0.0,1004.0,1004.0,0.0,6.0,0.0,6.0,5.0,0.0,5.0,0.0,left,83.0,left,1004.0,exclusive.A
participant_004,a,50,experiment,6,2,1,contrastive,y,2b,2a,2b,285.0,188.0,242.0,329.0,249.0,256.0,245.0,,1621.0,left,B,False,left,0.534,0.466,506.3,270.3,236.0,1.0,2.0,3.0,0.0,1.0,1.0,1.0,right,162.0,right,236.0,contrastive.B
participant_004,a,18,experiment,8,3,1,focus,y,3b,3a,,334.0,241.0,249.0,258.0,226.0,234.0,185.0,,2432.0,right,A,False,right,0.312,0.688,1231.3,384.0,847.3,1.0,3.0,4.0,0.0,2.0,2.0,2.0,right,403.0,right,403.0,focus.A
participant_004,a,43,experiment,10,4,1,exclusive,y,4b,4a,4a,261.0,196.0,214.0,193.0,236.0,186.0,241.0,,1313.0,right,A,False,right,0.0,1.0,351.3,0.0,351.3,0.0,2.0,2.0,0.0,1.0,1.0,0.0,right,81.0,right,351.3,exclusive.A
participant_004,a,10,experiment,15,5,1,contrastive,n,5a,5b,5b,412.0,345.0,345.0,298.0,354.0,276.0,273.0,,1619.0,left,A,True,left,0.955,0.045,1282.0,1224.0,58.0,4.0,1.0,5.0,3.0,0.0,3.0,1.0,right,58.0,right,58.0,contrastive.A
participant_004,a,13,experiment,17,6,1,focus,n,6a,6b,,216.0,447.0,203.0,203.0,217.0,684.0,286.0,,1357.0,left,A,False,left,0.782,0.218,1123.0,878.0,245.0,2.0,3.0,5.0,1.0,2.0,3.0,3.0,left,256.0,left,256.0,focus.A
participant_004,a,49,experiment,19,7,1,exclusive,n,7a,7b,7a,1020.0,244.0,222.0,156.0,246.0,212.0,198.0,,1671.0,left,A,False,left,1.0,0.0,480.3,480.3,0.0,3.0,0.0,3.0,2.0,0.0,2.0,0.0,left,73.0,left,480.3,exclusive.A
participant_004,a,47,experiment,24,8,1,contrastive,y,8b,8a,8b,252.0,269.0,245.0,260.0,232.0,238.0,235.0,,1707.0,left,B,False,left,1.0,0.0,1418.0,1418.0,0.0,4.0,0.0,4.0,3.0,0.0,3.0,0.0,left,94.0,left,1418.0,contrastive.B
participant_004,a,35,experiment,26,9,1,focus,y,9b,9a,,234.0,254.0,219.0,193.0,227.0,216.0,238.0,,1040.0,left,B,False,left,1.0,0.0,587.0,587.0,0.0,6.0,0.0,6.0,5.0,0.0,5.0,0.0,left,132.0,left,587.0,focus.B
participant_004,a,45,experiment,28,10,1,exclusive,y,10b,10a,10a,294.0,258.0,179.0,230.0,246.0,200.0,242.0,,1704.0,right,A,False,right,0.0,1.0,346.3,0.0,346.3,0.0,2.0,2.0,0.0,1.0,1.0,0.0,right,76.0,right,346.3,exclusive.A
participant_004,a,42,experiment,33,11,1,contrastive,n,11a,11b,11b,282.0,221.0,270.0,225.0,228.0,214.0,221.0,,1019.0,right,B,False,right,0.0,1.0,270.3,0.0,270.3,0.0,1.0,1.0,0.0,0.0,0.0,0.0,right,270.3,right,270.3,contrastive.B
participant_004,a,27,experiment,35,12,1,focus,n,12a,12b,,350.0,326.0,476.0,222.0,242.0,246.0,200.0,,1761.0,left,A,False,left,1.0,0.0,811.3,811.3,0.0,3.0,0.0,3.0,2.0,0.0,2.0,0.0,left,468.0,left,811.3,focus.A
participant_004,a,38,experiment,37,13,1,exclusive,n,13a,13b,13a,238.0,247.0,254.0,444.0,202.0,206.0,174.0,,2639.0,left,A,False,right,0.334,0.666,1917.0,640.0,1277.0,5.0,5.0,10.0,4.0,4.0,8.0,3.0,right,53.0,right,53.0,exclusive.A
participant_004,a,31,experiment,42,14,1,contrastive,y,14b,14a,14b,292.0,277.0,221.0,446.0,226.0,220.0,187.0,,6610.0,left,B,False,left,0.62,0.38,3291.9,2041.3,1250.6,4.0,3.0,7.0,3.0,2.0,5.0,5.0,right,710.0,right,710.0,contrastive.B
participant_004,a,29,experiment,44,15,1,focus,y,15b,15a,,368.0,540.0,272.0,242.0,262.0,309.0,268.0,,2018.0,right,A,False,right,0.295,0.705,1593.0,470.0,1123.0,2.0,4.0,6.0,1.0,3.0,4.0,2.0,right,95.0,right,408.0,focus.A
participant_004,a,40,experiment,46,16,1,exclusive,y,16b,16a,16a,347.0,284.0,242.0,276.0,211.0,294.0,269.0,,1671.0,right,A,False,right,0.343,0.657,411.3,141.0,270.3,1.0,1.0,2.0,0.0,0.0,0.0,1.0,left,141.0,left,141.0,exclusive.A
participant_004,a,34,experiment,51,17,1,contrastive,n,17a,17b,17b,326.0,278.0,228.0,250.0,240.0,253.0,224.0,,2073.0,right,B,False,right,0.0,1.0,340.3,0.0,340.3,0.0,2.0,2.0,0.0,1.0,1.0,0.0,right,70.0,right,340.3,contrastive.B
participant_004,a,21,experiment,53,18,1,focus,n,18a,18b,,286.0,211.0,235.0,206.0,486.0,231.0,234.0,,2956.0,left,A,False,left,0.536,0.464,1960.3,1051.0,909.3,3.0,2.0,5.0,2.0,1.0,3.0,3.0,left,50.0,left,50.0,focus.A
participant_005,b,34,experiment,2,1,1,focus,y,1b,1a,,355.0,299.0,367.0,349.0,353.0,380.0,482.0,,1271.0,right,A,False,right,0.115,0.885,870.0,100.0,770.0,1.0,1.0,2.0,0.0,0.0,0.0,1.0,right,770.0,right,770.0,focus.A
participant_005,b,26,experiment,4,2,1,exclusive,y,2b,2a,2a,350.0,313.0,356.0,351.0,346.0,337.0,581.0,,1789.0,right,A,False,right,0.221,0.779,480.3,106.0,374.3,2.0,3.0,5.0,1.0,2.0,3.0,3.0,left,53.0,left,53.0,exclusive.A
participant_005,b,49,experiment,9,3,1,contrastive,n,3a,3b,3b,388.0,361.0,344.0,361.0,351.0,466.0,3049.0,,2319.0,right,B,False,,,,1134.1947858472997,,,,,5.216014897579144,,,,2.0595903165735567,,226.12327746741155,,404.29422718808195,contrastive.B
participant_005,b,25,experiment,11,4,1,focus,n,4a,4b,,338.0,305.0,323.0,299.0,334.0,374.0,401.0,,1613.0,left,A,False,right,0.326,0.674,776.0,253.0,523.0,5.0,6.0,11.0,4.0,5.0,9.0,5.0,left,51.0,left,151.0,focus.A
participant_005,b,13,experiment,13,5,1,exclusive,n,5a,5b,5a,482.0,325.0,352.0,418.0,344.0,361.0,701.0,,2206.0,left,A,False,left,0.968,0.032,1540.0,1490.0,50.0,7.0,1.0,8.0,6.0,0.0,6.0,2.0,left,61.0,left,1142.0,exclusive.A
participant_005,b,15,experiment,18,6,1,contrastive,y,6b,6a,6b,476.0,396.0,309.0,323.0,288.0,348.0,1288.0,,1318.0,left,B,False,left,1.0,0.0,270.3,270.3,0.0,1.0,0.0,1.0,0.0,0.0,0.0,0.0,left,270.3,left,270.3,contrastive.B
participant_005,b,37,experiment,20,7,1,focus,y,7b,7a,,414.0,221.0,389.0,269.0,416.0,551.0,1336.0,,1327.0,right,A,False,right,0.111,0.889,1011.0,112.0,899.0,1.0,3.0,4.0,0.0,2.0,2.0,1.0,left,112.0,left,112.0,focus.A
participant_005,b,17,experiment,22,8,1,exclusive,y,8b,8a,8a,500.0,286.0,319.0,313.0,388.0,521.0,4109.0,,1586.0,right,A,False,right,0.043,0.957,1196.0,51.0,1145.0,1.0,3.0,4.0,0.0,2.0,2.0,1.0,left,51.0,left,51.0,exclusive.A
participant_005,b,12,experiment,27,9,1,contrastive,n,9a,9b,9b,553.0,406.0,396.0,460.0,372.0,320.0,494.0,,802.0,right,B,False,right,0.199,0.801,527.0,105.0,422.0,1.0,1.0,2.0,0.0,0.0,0.0,1.0,left,105.0,left,105.0,contrastive.B
participant_005,b,21,experiment,29,10,1,focus,n,10a,10b,,427.0,292.0,337.0,433.0,399.0,399.0,522.0,,1610.0,left,A,False,left,0.864,0.136,382.3,330.3,52.0,2.0,1.0,3.0,1.0,0.0,1.0,2.0,left,60.0,left,60.0,focus.A
participant_005,b,39,experiment,31,11,1,exclusive,n,11a,11b,11a,521.0,363.0,332.0,344.0,329.0,331.0,393.0,,3399.0,left,A,False,left,0.864,0.136,2751.0,2378.0,373.0,6.0,4.0,10.0,5.0,3.0,8.0,6.0,left,192.0,left,719.0,exclusive.A
participant_005,b,41,experiment,36,12,1,contrastive,y,12b,12a,12b,831.0,565.0,409.0,420.0,400.0,461.0,3236.0,,1551.0,left,B,False,left,1.0,0.0,270.3,270.3,0.0,1.0,0.0,1.0,0.0,0.0,0.0,0.0,left,270.3,left,270.3,contrastive.B
participant_005,b,14,experiment,38,13,1,focus,y,13b,13a,,501.0,337.0,362.0,391.0,432.0,509.0,461.0,,1371.0,right,A,False,right,0.116,0.884,1073.0,125.0,948.0,2.0,4.0,6.0,1.0,3.0,4.0,4.0,right,71.0,right,71.0,focus.A
participant_005,b,29,experiment,40,14,1,exclusive,y,14b,14a,14a,466.0,329.0,330.0,335.0,474.0,494.0,669.0,,1600.0,right,A,False,right,0.0,1.0,374.3,0.0,374.3,0.0,3.0,3.0,0.0,2.0,2.0,0.0,right,52.0,right,374.3,exclusive.A
participant_005,b,46,experiment,45,15,1,contrastive,n,15a,15b,15b,408.0,307.0,366.0,338.0,341.0,373.0,463.0,,1370.0,right,B,False,right,0.309,0.691,391.3,121.0,270.3,2.0,1.0,3.0,1.0,0.0,1.0,1.0,left,69.0,left,121.0,contrastive.B
participant_005,b,18,experiment,47,16,1,focus,n,16a,16b,,305.0,269.0,228.0,315.0,323.0,356.0,411.0,,1071.0,left,A,False,left,1.0,0.0,270.3,270.3,0.0,1.0,0.0,1.0,0.0,0.0,0.0,0.0,left,270.3,left,270.3,focus.A
participant_005,b,23,experiment,49,17,1,exclusive,n,17a,17b,17a,446.0,362.0,338.0,384.0,421.0,408.0,1110.0,,2174.0,left,A,False,left,0.831,0.169,1223.0,1016.0,207.0,9.0,2.0,11.0,8.0,1.0,9.0,4.0,left,80.0,left,139.0,exclusive.A
participant_005,b,43,experiment,54,18,1,contrastive,y,18b,18a,18b,481.0,323.0,361.0,422.0,383.0,642.0,1895.0,,1580.0,left,B,False,left,1.0,0.0,504.3,504.3,0.0,2.0,0.0,2.0,1.0,0.0,1.0,0.0,left,234.0,left,504.3,contrastive.B
participant_006,c,33,experiment,3,1,1,contrastive,n,1a,1b,1b,321.0,272.0,255.0,297.0,264.0,321.0,364.0,,724.0,right,B,False,right,0.0,1.0,670.0,0.0,670.0,0.0,2.0,2.0,0.0,1.0,1.0,0.0,right,336.0,right,670.0,contrastive.B
participant_006,c,36,experiment,5,2,1,focus,n,2a,2b,,339.0,270.0,326.0,315.0,359.0,848.0,434.0,,744.0,left,A,False,left,1.0,0.0,629.0,629.0,0.0,2.0,0.0,2.0,1.0,0.0,1.0,0.0,left,197.0,left,629.0,focus.A
participant_006,c,34,experiment,7,3,1,exclusive,n,3a,3b,3a,646.0,608.0,676.0,730.0,458.0,702.0,619.0,,1246.0,left,A,False,left,0.696,0.304,1212.0,843.0,369.0,2.0,1.0,3.0,1.0,0.0,1.0,2.0,left,674.0,left,674.0,exclusive.A
participant_006,c,47,experiment,12,4,1,contrastive,y,4b,4a,4b,290.0,278.0,295.0,267.0,254.0,242.0,272.0,,937.0,left,B,False,left,0.812,0.188,352.0,286.0,66.0,2.0,1.0,3.0,1.0,0.0,1.0,1.0,right,66.0,right,66.0,contrastive.B
participant_006,c,27,experiment,14,5,1,focus,y,5b,5a,,445.0,343.0,333.0,359.0,331.0,348.0,490.0,,1206.0,right,A,False,right,0.0,1.0,1096.0,0.0,1096.0,0.0,2.0,2.0,0.0,1.0,1.0,0.0,right,300.0,right,1096.0,focus.A
participant_006,c,17,experiment,16,6,1,exclusive,y,6b,6a,6a,407.0,338.0,315.0,316.0,322.0,298.0,336.0,,646.0,right,A,False,right,0.0,1.0,136.0,0.0,136.0,0.0,2.0,2.0,0.0,1.0,1.0,0.0,right,67.0,right,136.0,exclusive.A
participant_006,c,49,experiment,21,7,1,contrastive,n,7a,7b,7b,290.0,214.0,248.0,270.0,266.0,250.0,347.0,,927.0,right,B,False,right,0.337,0.663,816.0,275.0,541.0,2.0,1.0,3.0,1.0,0.0,1.0,1.0,left,132.0,left,275.0,contrastive.B
participant_006,c,12,experiment,23,8,1,focus,n,8a,8b,,525.0,578.0,457.0,585.0,417.0,431.0,577.0,,916.0,left,A,False,left,1.0,0.0,531.0,531.0,0.0,4.0,0.0,4.0,3.0,0.0,3.0,0.0,left,69.0,left,531.0,focus.A
participant_006,c,40,experiment,25,9,1,exclusive,n,9a,9b,9a,331.0,353.0,386.0,377.0,455.0,882.0,348.0,,671.0,left,A,False,left,1.0,0.0,311.0,311.0,0.0,1.0,0.0,1.0,0.0,0.0,0.0,0.0,left,311.0,left,311.0,exclusive.A
participant_006,c,43,experiment,30,10,1,contrastive,y,10b,10a,10b,279.0,380.0,556.0,420.0,311.0,326.0,416.0,,870.0,left,B,False,left,1.0,0.0,684.0,684.0,0.0,2.0,0.0,2.0,1.0,0.0,1.0,0.0,left,75.0,left,684.0,contrastive.B
participant_006,c,22,experiment,32,11,1,focus,y,11b,11a,,323.0,237.0,245.0,231.0,248.0,237.0,355.0,,534.0,right,A,False,right,0.0,1.0,348.0,0.0,348.0,0.0,2.0,2.0,0.0,1.0,1.0,0.0,right,237.0,right,348.0,focus.A
participant_006,c,10,experiment,34,12,1,exclusive,y,12b,12a,12a,569.0,465.0,897.0,472.0,445.0,711.0,551.0,,711.0,right,A,False,left,1.0,0.0,574.0,574.0,0.0,4.0,0.0,4.0,3.0,0.0,3.0,0.0,left,73.0,left,574.0,exclusive.A
participant_006,c,20,experiment,39,13,1,contrastive,n,13a,13b,13b,653.0,409.0,329.0,309.0,345.0,340.0,619.0,,690.0,right,B,False,right,0.0,1.0,299.0,0.0,299.0,0.0,1.0,1.0,0.0,0.0,0.0,0.0,right,299.0,right,299.0,contrastive.B
participant_006,c,29,experiment,41,14,1,focus,n,14a,14b,,349.0,281.0,292.0,324.0,332.0,342.0,350.0,,5364.0,left,A,False,right,0.465,0.535,3344.6,1554.3,1790.3,5.0,6.0,11.0,4.0,5.0,9.0,8.0,left,302.0,left,302.0,focus.A
participant_006,c,15,experiment,43,15,1,exclusive,n,15a,15b,15a,470.0,413.0,398.0,416.0,363.0,418.0,395.0,,1145.0,left,A,False,right,0.469,0.531,901.0,423.0,478.0,2.0,1.0,3.0,1.0,0.0,1.0,1.0,left,92.0,left,423.0,exclusive.A
participant_006,c,25,experiment,48,16,1,contrastive,y,16b,16a,16b,340.0,284.0,301.0,345.0,301.0,313.0,339.0,,1388.0,left,B,False,left,1.0,0.0,473.3,473.3,0.0,2.0,0.0,2.0,1.0,0.0,1.0,0.0,left,270.3,left,473.3,contrastive.B
participant_006,c,24,experiment,50,17,1,focus,y,17b,17a,,318.0,279.0,280.0,265.0,499.0,357.0,373.0,,1228.0,right,A,False,right,0.0,1.0,1037.0,0.0,1037.0,0.0,4.0,4.0,0.0,3.0,3.0,0.0,right,104.0,right,1037.0,focus.A
participant_006,c,38,experiment,52,18,1,exclusive,y,18b,18a,18a,277.0,1412.0,2044.0,596.0,688.0,385.0,410.0,,910.0,right,A,False,left,0.811,0.189,873.0,708.0,165.0,1.0,1.0,2.0,0.0,0.0,0.0,1.0,left,708.0,left,708.0,exclusive.A
participant_007,a,36,experiment,1,1,1,exclusive,n,1a,1b,1a,488.0,238.0,289.0,445.0,236.0,208.0,480.0,,2473.0,right,B,True,left,0.508,0.492,2311.0,1173.0,1138.0,3.0,4.0,7.0,2.0,3.0,5.0,1.0,left,806.0,left,1173.0,exclusive.B
participant_007,a,50,experiment,6,2,1,contrastive,y,2b,2a,2b,305.0,182.0,201.0,215.0,200.0,232.0,440.0,,532.0,right,A,True,right,0.0,1.0,176.0,0.0,176.0,0.0,2.0,2.0,0.0,1.0,1.0,0.0,right,69.0,right,176.0,contrastive.A
participant_007,a,18,experiment,8,3,1,focus,y,3b,3a,,597.0,321.0,210.0,390.0,301.0,260.0,172.0,,920.0,left,B,False,left,0.792,0.208,612.0,485.0,127.0,1.0,2.0,3.0,0.0,1.0,1.0,1.0,right,60.0,right,127.0,focus.B
participant_007,a,43,experiment,10,4,1,exclusive,y,4b,4a,4a,535.0,244.0,2164.0,321.0,373.0,368.0,419.0,,682.0,left,B,True,left,1.0,0.0,611.0,611.0,0.0,3.0,0.0,3.0,2.0,0.0,2.0,0.0,left,197.0,left,611.0,exclusive.B
participant_007,a,10,experiment,15,5,1,contrastive,n,5a,5b,5b,1106.0,493.0,515.0,379.0,376.0,858.0,579.0,,1649.0,left,A,True,left,0.751,0.249,655.0,492.0,163.0,5.0,2.0,7.0,4.0,1.0,5.0,1.0,right,66.0,right,163.0,contrastive.A
participant_007,a,13,experiment,17,6,1,focus,n,6a,6b,,608.0,512.0,529.0,804.0,445.0,334.0,1121.0,,834.0,left,A,False,left,1.0,0.0,541.0,541.0,0.0,3.0,0.0,3.0,2.0,0.0,2.0,0.0,left,132.0,left,541.0,focus.A
participant_007,a,49,experiment,19,7,1,exclusive,n,7a,7b,7a,384.0,234.0,201.0,206.0,324.0,220.0,584.0,,2981.0,right,B,True,right,0.03,0.97,2166.0,65.0,2101.0,1.0,10.0,11.0,0.0,9.0,9.0,2.0,right,182.0,right,1687.0,exclusive.B
participant_007,a,47,experiment,24,8,1,contrastive,y,8b,8a,8b,287.0,226.0,246.0,210.0,327.0,313.0,345.0,,1892.0,right,A,True,right,0.118,0.882,903.0,107.0,796.0,1.0,3.0,4.0,0.0,2.0,2.0,1.0,left,107.0,left,107.0,contrastive.A
participant_007,a,35,experiment,26,9,1,focus,y,9b,9a,,439.0,319.0,288.0,608.0,217.0,439.0,460.0,,464.0,left,B,False,left,1.0,0.0,233.0,233.0,0.0,2.0,0.0,2.0,1.0,0.0,1.0,0.0,left,134.0,left,233.0,focus.B
participant_007,a,45,experiment,28,10,1,exclusive,y,10b,10a,10a,520.0,227.0,184.0,398.0,294.0,732.0,304.0,,858.0,right,A,False,right,0.445,0.555,326.0,145.0,181.0,1.0,2.0,3.0,0.0,1.0,1.0,1.0,left,145.0,left,145.0,exclusive.A
participant_007,a,42,experiment,33,11,1,contrastive,n,11a,11b,11b,1555.0,326.0,1744.0,368.0,248.0,629.0,424.0,,1168.0,left,A,True,left,0.506,0.494,462.0,234.0,228.0,3.0,3.0,6.0,2.0,2.0,4.0,3.0,right,62.0,right,62.0,contrastive.A
participant_007,a,27,experiment,35,12,1,focus,n,12a,12b,,554.0,434.0,451.0,699.0,305.0,732.0,409.0,,982.0,left,A,False,left,1.0,0.0,530.0,530.0,0.0,4.0,0.0,4.0,3.0,0.0,3.0,0.0,left,67.0,left,530.0,focus.A
participant_007,a,38,experiment,37,13,1,exclusive,n,13a,13b,13a,600.0,290.0,209.0,234.0,900.0,471.0,353.0,,770.0,right,B,True,right,0.0,1.0,488.0,0.0,488.0,0.0,2.0,2.0,0.0,1.0,1.0,0.0,right,418.0,right,488.0,exclusive.B
participant_007,a,31,experiment,42,14,1,contrastive,y,14b,14a,14b,493.0,324.0,218.0,790.0,372.0,370.0,620.0,,3077.0,left,B,False,left,0.562,0.438,2744.0,1543.0,1201.0,6.0,2.0,8.0,5.0,1.0,6.0,3.0,right,733.0,right,733.0,contrastive.B
participant_007,a,29,experiment,44,15,1,focus,y,15b,15a,,510.0,266.0,288.0,312.0,345.0,335.0,554.0,,847.0,left,B,False,left,1.0,0.0,748.0,748.0,0.0,3.0,0.0,3.0,2.0,0.0,2.0,0.0,left,377.0,left,748.0,focus.B
participant_007,a,40,experiment,46,16,1,exclusive,y,16b,16a,16a,464.0,182.0,386.0,296.0,230.0,418.0,298.0,,940.0,right,A,False,right,0.087,0.913,778.0,68.0,710.0,1.0,5.0,6.0,0.0,4.0,4.0,2.0,right,64.0,right,64.0,exclusive.A
participant_007,a,34,experiment,51,17,1,contrastive,n,17a,17b,17b,671.0,428.0,393.0,354.0,309.0,560.0,443.0,,742.0,left,A,True,left,0.842,0.158,645.0,543.0,102.0,3.0,1.0,4.0,2.0,0.0,2.0,2.0,left,66.0,left,66.0,contrastive.A
participant_007,a,21,experiment,53,18,1,focus,n,18a,18b,,509.0,291.0,341.0,360.0,327.0,369.0,464.0,,905.0,right,B,False,right,0.0,1.0,735.0,0.0,735.0,0.0,3.0,3.0,0.0,2.0,2.0,0.0,right,533.0,right,735.0,focus.B
participant_008,b,34,experiment,2,1,1,focus,y,1b,1a,,316.0,314.0,282.0,245.0,401.0,427.0,323.0,,640.0,right,A,False,right,0.0,1.0,609.0,0.0,609.0,0.0,1.0,1.0,0.0,0.0,0.0,0.0,right,609.0,right,609.0,focus.A
participant_008,b,26,experiment,4,2,1,exclusive,y,2b,2a,2a,1061.0,772.0,552.0,477.0,419.0,422.0,378.0,,631.0,right,A,False,right,0.408,0.592,463.0,189.0,274.0,1.0,2.0,3.0,0.0,1.0,1.0,2.0,right,78.0,right,78.0,exclusive.A
participant_008,b,49,experiment,9,3,1,contrastive,n,3a,3b,3b,356.0,392.0,301.0,297.0,316.0,337.0,304.0,,673.0,right,B,False,right,0.0,1.0,647.0,0.0,647.0,0.0,1.0,1.0,0.0,0.0,0.0,0.0,right,647.0,right,647.0,contrastive.B
participant_008,b,25,experiment,11,4,1,focus,n,4a,4b,,461.0,485.0,401.0,414.0,390.0,417.0,692.0,,1012.0,left,A,False,left,0.567,0.433,702.0,398.0,304.0,3.0,2.0,5.0,2.0,1.0,3.0,3.0,left,112.0,left,112.0,focus.A
participant_008,b,13,experiment,13,5,1,exclusive,n,5a,5b,5a,476.0,509.0,432.0,371.0,336.0,351.0,400.0,,538.0,left,A,False,right,0.0,1.0,78.0,0.0,78.0,0.0,1.0,1.0,0.0,0.0,0.0,0.0,right,78.0,right,78.0,exclusive.A
participant_008,b,15,experiment,18,6,1,contrastive,y,6b,6a,6b,382.0,400.0,318.0,331.0,317.0,346.0,331.0,,760.0,left,B,False,left,0.716,0.284,676.0,484.0,192.0,2.0,2.0,4.0,1.0,1.0,2.0,3.0,right,78.0,right,78.0,contrastive.B
participant_008,b,37,experiment,20,7,1,focus,y,7b,7a,,396.0,339.0,293.0,275.0,301.0,298.0,301.0,,438.0,right,A,False,right,0.0,1.0,405.0,0.0,405.0,0.0,1.0,1.0,0.0,0.0,0.0,0.0,right,405.0,right,405.0,focus.A
participant_008,b,17,experiment,22,8,1,exclusive,y,8b,8a,8a,428.0,531.0,754.0,764.0,652.0,1128.0,618.0,,634.0,right,A,False,right,0.353,0.647,535.0,189.0,346.0,2.0,2.0,4.0,1.0,1.0,2.0,3.0,left,75.0,left,75.0,exclusive.A
participant_008,b,12,experiment,27,9,1,contrastive,n,9a,9b,9b,508.0,893.0,814.0,702.0,808.0,424.0,404.0,,1165.0,left,A,True,left,0.799,0.201,765.0,611.0,154.0,2.0,1.0,3.0,1.0,0.0,1.0,1.0,right,154.0,right,154.0,contrastive.A
participant_008,b,21,experiment,29,10,1,focus,n,10a,10b,,467.0,406.0,464.0,410.0,378.0,444.0,446.0,,849.0,left,A,False,left,0.638,0.362,701.0,447.0,254.0,2.0,1.0,3.0,1.0,0.0,1.0,1.0,right,254.0,right,254.0,focus.A
participant_008,b,39,experiment,31,11,1,exclusive,n,11a,11b,11a,413.0,406.0,359.0,357.0,330.0,314.0,382.0,,557.0,left,A,False,right,0.437,0.563,378.0,165.0,213.0,1.0,2.0,3.0,0.0,1.0,1.0,1.0,right,125.0,right,213.0,exclusive.A
participant_008,b,41,experiment,36,12,1,contrastive,y,12b,12a,12b,358.0,602.0,321.0,332.0,305.0,545.0,328.0,,500.0,left,B,False,left,0.669,0.331,314.0,210.0,104.0,2.0,1.0,3.0,1.0,0.0,1.0,1.0,right,104.0,right,104.0,contrastive.B
participant_008,b,14,experiment,38,13,1,focus,y,13b,13a,,379.0,354.0,307.0,288.0,319.0,296.0,365.0,,669.0,right,A,False,right,0.0,1.0,535.0,0.0,535.0,0.0,2.0,2.0,0.0,1.0,1.0,0.0,right,246.0,right,535.0,focus.A
participant_008,b,29,experiment,40,14,1,exclusive,y,14b,14a,14a,354.0,344.0,294.0,303.0,308.0,319.0,602.0,,1307.0,right,A,False,left,0.551,0.449,1074.0,592.0,482.0,2.0,3.0,5.0,1.0,2.0,3.0,3.0,left,125.0,left,125.0,exclusive.A
participant_008,b,46,experiment,45,15,1,contrastive,n,15a,15b,15b,417.0,369.0,315.0,289.0,337.0,280.0,327.0,,692.0,right,B,False,right,0.19,0.81,668.0,127.0,541.0,1.0,1.0,2.0,0.0,0.0,0.0,1.0,right,541.0,right,541.0,contrastive.B
participant_008,b,18,experiment,47,16,1,focus,n,16a,16b,,474.0,443.0,387.0,364.0,340.0,364.0,377.0,,1055.0,left,A,False,right,0.448,0.552,616.0,276.0,340.0,1.0,1.0,2.0,0.0,0.0,0.0,1.0,right,340.0,right,340.0,focus.A
participant_008,b,23,experiment,49,17,1,exclusive,n,17a,17b,17a,287.0,310.0,329.0,307.0,375.0,370.0,323.0,,744.0,left,A,False,left,0.815,0.185,611.0,498.0,113.0,1.0,1.0,2.0,0.0,0.0,0.0,1.0,right,113.0,right,113.0,exclusive.A
participant_008,b,43,experiment,54,18,1,contrastive,y,18b,18a,18b,411.0,391.0,373.0,345.0,387.0,334.0,434.0,,626.0,left,B,False,left,1.0,0.0,415.0,415.0,0.0,3.0,0.0,3.0,2.0,0.0,2.0,0.0,left,82.0,left,415.0,contrastive.B
participant_009,c,33,experiment,3,1,1,contrastive,n,1a,1b,1b,582.0,526.0,550.0,442.0,597.0,894.0,481.0,,1990.0,right,B,False,right,0.195,0.805,1856.0,362.0,1494.0,5.0,6.0,11.0,4.0,5.0,9.0,9.0,left,73.0,left,73.0,contrastive.B
participant_009,c,36,experiment,5,2,1,focus,n,2a,2b,,483.0,463.0,373.0,441.0,383.0,467.0,491.0,,970.0,left,A,False,left,1.0,0.0,785.0,785.0,0.0,1.0,0.0,1.0,0.0,0.0,0.0,0.0,left,785.0,left,785.0,focus.A
participant_009,c,34,experiment,7,3,1,exclusive,n,3a,3b,3a,509.0,436.0,345.0,548.0,473.0,828.0,505.0,,1390.0,left,A,False,right,0.42,0.58,1139.0,478.0,661.0,4.0,4.0,8.0,3.0,3.0,6.0,5.0,right,264.0,right,401.0,exclusive.A
participant_009,c,47,experiment,12,4,1,contrastive,y,4b,4a,4b,1571.0,476.0,399.0,1215.0,477.0,1061.0,1021.0,,1305.0,left,B,False,left,0.83,0.17,576.3,478.3,98.0,2.0,1.0,3.0,1.0,0.0,1.0,2.0,left,208.0,left,208.0,contrastive.B
participant_009,c,27,experiment,14,5,1,focus,y,5b,5a,,586.0,471.0,494.0,477.0,423.0,401.0,979.0,,2037.0,right,A,False,left,0.624,0.376,1275.0,795.0,480.0,3.0,4.0,7.0,2.0,3.0,5.0,2.0,left,204.0,left,204.0,focus.A
participant_009,c,17,experiment,16,6,1,exclusive,y,6b,6a,6a,735.0,479.0,371.0,398.0,405.0,1049.0,446.0,,1171.0,right,A,False,right,0.321,0.679,794.0,255.0,539.0,3.0,5.0,8.0,2.0,4.0,6.0,5.0,left,78.0,left,78.0,exclusive.A
participant_009,c,49,experiment,21,7,1,contrastive,n,7a,7b,7b,469.0,472.0,457.0,418.0,801.0,528.0,535.0,,1120.0,right,B,False,right,0.0,1.0,270.3,0.0,270.3,0.0,1.0,1.0,0.0,0.0,0.0,0.0,right,270.3,right,270.3,contrastive.B
participant_009,c,12,experiment,23,8,1,focus,n,8a,8b,,670.0,467.0,923.0,722.0,662.0,741.0,751.0,,1561.0,left,A,False,right,0.463,0.537,1145.0,530.0,615.0,1.0,3.0,4.0,0.0,2.0,2.0,1.0,right,61.0,right,615.0,focus.A
participant_009,c,40,experiment,25,9,1,exclusive,n,9a,9b,9a,490.0,326.0,373.0,370.0,365.0,647.0,448.0,,1002.0,left,A,False,left,0.636,0.364,390.0,248.0,142.0,3.0,2.0,5.0,2.0,1.0,3.0,3.0,right,73.0,right,73.0,exclusive.A
participant_009,c,43,experiment,30,10,1,contrastive,y,10b,10a,10b,537.0,447.0,405.0,468.0,424.0,1791.0,922.0,,1521.0,left,B,False,left,0.828,0.172,952.0,788.0,164.0,4.0,2.0,6.0,3.0,1.0,4.0,4.0,left,104.0,left,104.0,contrastive.B
participant_009,c,22,experiment,32,11,1,focus,y,11b,11a,,447.0,409.0,418.0,382.0,354.0,387.0,589.0,,1018.0,right,A,False,right,0.228,0.772,877.0,200.0,677.0,2.0,2.0,4.0,1.0,1.0,2.0,3.0,left,96.0,left,96.0,focus.A
participant_009,c,10,experiment,34,12,1,exclusive,y,12b,12a,12a,805.0,535.0,520.0,1465.0,585.0,1077.0,1433.0,,1531.0,right,A,False,left,0.536,0.464,1195.0,641.0,554.0,2.0,4.0,6.0,1.0,3.0,4.0,3.0,left,86.0,left,86.0,exclusive.A
participant_009,c,20,experiment,39,13,1,contrastive,n,13a,13b,13b,561.0,483.0,444.0,432.0,464.0,484.0,1006.0,,5758.0,right,B,False,right,0.208,0.792,3882.3,809.0,3073.3,3.0,8.0,11.0,2.0,7.0,9.0,4.0,right,54.0,right,115.0,contrastive.B
participant_009,c,29,experiment,41,14,1,focus,n,14a,14b,,522.0,475.0,397.0,464.0,428.0,472.0,1544.0,,8841.0,right,B,False,right,0.478,0.522,4219.9,2017.0,2202.9,6.0,7.0,13.0,5.0,6.0,11.0,4.0,right,270.3,right,1116.3,focus.B
participant_009,c,15,experiment,43,15,1,exclusive,n,15a,15b,15a,578.0,388.0,1105.0,451.0,427.0,604.0,610.0,,2161.0,left,A,False,left,0.583,0.417,1174.0,684.0,490.0,6.0,5.0,11.0,5.0,4.0,9.0,6.0,right,90.0,right,90.0,exclusive.A
participant_009,c,25,experiment,48,16,1,contrastive,y,16b,16a,16b,457.0,391.0,412.0,378.0,377.0,707.0,617.0,,1372.0,left,B,False,left,0.555,0.445,1133.0,629.0,504.0,4.0,4.0,8.0,3.0,3.0,6.0,6.0,left,238.0,left,238.0,contrastive.B
participant_009,c,24,experiment,50,17,1,focus,y,17b,17a,,413.0,378.0,387.0,397.0,456.0,398.0,961.0,,1549.0,right,A,False,left,0.82,0.18,1391.0,1141.0,250.0,5.0,4.0,9.0,4.0,3.0,7.0,7.0,left,289.0,left,289.0,focus.A
participant_009,c,38,experiment,52,18,1,exclusive,y,18b,18a,18a,528.0,398.0,301.0,381.0,404.0,430.0,432.0,,1599.0,right,A,False,left,0.574,0.426,1051.0,603.0,448.0,2.0,3.0,5.0,1.0,2.0,3.0,1.0,left,258.0,left,603.0,exclusive.A
participant_010,a,36,experiment,1,1,1,exclusive,n,1a,1b,1a,349.0,310.0,276.0,283.0,300.0,255.0,160.0,,463.0,left,A,False,left,1.0,0.0,350.0,350.0,0.0,3.0,0.0,3.0,2.0,0.0,2.0,0.0,left,74.0,left,350.0,exclusive.A
participant_010,a,50,experiment,6,2,1,contrastive,y,2b,2a,2b,415.0,322.0,304.0,289.0,312.0,304.0,264.0,,935.0,right,A,True,right,0.0,1.0,832.0,0.0,832.0,0.0,1.0,1.0,0.0,0.0,0.0,0.0,right,832.0,right,832.0,contrastive.A
participant_010,a,18,experiment,8,3,1,focus,y,3b,3a,,478.0,465.0,469.0,454.0,433.0,391.0,485.0,,1143.0,right,A,False,right,0.0,1.0,339.3,0.0,339.3,0.0,2.0,2.0,0.0,1.0,1.0,0.0,right,69.0,right,339.3,focus.A
participant_010,a,43,experiment,10,4,1,exclusive,y,4b,4a,4a,334.0,316.0,283.0,296.0,239.0,306.0,239.0,,2743.0,left,B,True,left,0.795,0.205,1762.0,1401.0,361.0,8.0,2.0,10.0,7.0,1.0,8.0,4.0,left,78.0,left,420.0,exclusive.B
participant_010,a,10,experiment,15,5,1,contrastive,n,5a,5b,5b,912.0,683.0,611.0,572.0,502.0,510.0,597.0,,1416.0,right,B,False,left,0.514,0.486,556.3,286.0,270.3,1.0,1.0,2.0,0.0,0.0,0.0,1.0,left,286.0,left,286.0,contrastive.B
participant_010,a,13,experiment,17,6,1,focus,n,6a,6b,,464.0,422.0,473.0,401.0,472.0,482.0,469.0,,873.0,left,A,False,right,0.301,0.699,366.0,110.0,256.0,1.0,3.0,4.0,0.0,2.0,2.0,2.0,right,102.0,right,172.0,focus.A
participant_010,a,49,experiment,19,7,1,exclusive,n,7a,7b,7a,438.0,265.0,225.0,216.0,170.0,148.0,366.0,,519.0,right,B,True,right,0.0,1.0,494.0,0.0,494.0,0.0,1.0,1.0,0.0,0.0,0.0,0.0,right,494.0,right,494.0,exclusive.B
participant_010,a,47,experiment,24,8,1,contrastive,y,8b,8a,8b,357.0,278.0,258.0,238.0,253.0,181.0,183.0,,2513.0,right,A,True,right,0.338,0.662,1306.0,441.0,865.0,6.0,6.0,12.0,5.0,5.0,10.0,7.0,right,148.0,right,257.0,contrastive.A
participant_010,a,35,experiment,26,9,1,focus,y,9b,9a,,584.0,300.0,254.0,267.0,270.0,165.0,352.0,,408.0,right,A,False,left,0.781,0.219,366.0,286.0,80.0,1.0,1.0,2.0,0.0,0.0,0.0,1.0,left,286.0,left,286.0,focus.A
participant_010,a,45,experiment,28,10,1,exclusive,y,10b,10a,10a,288.0,274.0,268.0,159.0,205.0,368.0,321.0,,1894.0,left,B,True,left,0.903,0.097,1512.0,1365.0,147.0,5.0,2.0,7.0,4.0,1.0,5.0,4.0,left,144.0,left,769.0,exclusive.B
participant_010,a,42,experiment,33,11,1,contrastive,n,11a,11b,11b,411.0,106.0,199.0,404.0,288.0,341.0,294.0,,4090.0,left,A,True,left,0.671,0.329,2448.0,1642.0,806.0,9.0,6.0,15.0,8.0,5.0,13.0,6.0,left,147.0,left,147.0,contrastive.A
participant_010,a,27,experiment,35,12,1,focus,n,12a,12b,,380.0,273.0,309.0,291.0,313.0,382.0,370.0,,1189.0,left,A,False,left,0.723,0.277,1031.0,745.0,286.0,2.0,1.0,3.0,1.0,0.0,1.0,1.0,right,286.0,right,286.0,focus.A
participant_010,a,38,experiment,37,13,1,exclusive,n,13a,13b,13a,320.0,271.0,277.0,250.0,256.0,247.0,282.0,,398.0,left,A,False,left,1.0,0.0,322.0,322.0,0.0,1.0,0.0,1.0,0.0,0.0,0.0,0.0,left,322.0,left,322.0,exclusive.A
participant_010,a,31,experiment,42,14,1,contrastive,y,14b,14a,14b,511.0,320.0,314.0,345.0,277.0,327.0,317.0,,2818.0,left,B,False,left,0.794,0.206,2688.0,2134.0,554.0,4.0,1.0,5.0,3.0,0.0,3.0,2.0,left,118.0,left,118.0,contrastive.B
participant_010,a,29,experiment,44,15,1,focus,y,15b,15a,,376.0,337.0,327.0,350.0,343.0,413.0,334.0,,779.0,right,A,False,right,0.326,0.674,666.0,217.0,449.0,2.0,2.0,4.0,1.0,1.0,2.0,3.0,right,79.0,right,79.0,focus.A
participant_010,a,40,experiment,46,16,1,exclusive,y,16b,16a,16a,330.0,252.0,273.0,239.0,248.0,233.0,327.0,,9170.0,right,A,False,left,0.647,0.353,6970.0,4511.0,2459.0,21.0,13.0,34.0,20.0,12.0,32.0,20.0,right,70.0,right,70.0,exclusive.A
participant_010,a,34,experiment,51,17,1,contrastive,n,17a,17b,17b,440.0,338.0,391.0,383.0,298.0,318.0,386.0,,3139.0,right,B,False,left,0.576,0.424,1880.0,1083.0,797.0,9.0,2.0,11.0,8.0,1.0,9.0,3.0,left,338.0,left,338.0,contrastive.B
participant_010,a,21,experiment,53,18,1,focus,n,18a,18b,,424.0,423.0,415.0,358.0,394.0,353.0,387.0,,796.0,left,A,False,left,0.888,0.112,636.0,565.0,71.0,2.0,1.0,3.0,1.0,0.0,1.0,2.0,left,138.0,left,138.0,focus.A
participant_011,b,34,experiment,2,1,1,focus,y,1b,1a,,500.0,430.0,374.0,368.0,372.0,417.0,407.0,,569.0,right,A,False,left,1.0,0.0,350.0,350.0,0.0,3.0,0.0,3.0,2.0,0.0,2.0,0.0,left,97.0,left,350.0,focus.A
participant_011,b,26,experiment,4,2,1,exclusive,y,2b,2a,2a,434.0,475.0,387.0,467.0,456.0,471.0,471.0,,681.0,right,A,False,right,0.143,0.857,377.0,54.0,323.0,1.0,2.0,3.0,0.0,1.0,1.0,1.0,left,54.0,left,54.0,exclusive.A
participant_011,b,49,experiment,9,3,1,contrastive,n,3a,3b,3b,524.0,536.0,511.0,400.0,364.0,603.0,550.0,,706.0,right,B,False,right,0.465,0.535,563.0,262.0,301.0,1.0,2.0,3.0,0.0,1.0,1.0,1.0,left,262.0,left,262.0,contrastive.B
participant_011,b,25,experiment,11,4,1,focus,n,4a,4b,,464.0,719.0,389.0,515.0,443.0,538.0,393.0,,683.0,left,A,False,left,1.0,0.0,499.0,499.0,0.0,2.0,0.0,2.0,1.0,0.0,1.0,0.0,left,134.0,left,499.0,focus.A
participant_011,b,13,experiment,13,5,1,exclusive,n,5a,5b,5a,580.0,673.0,508.0,649.0,464.0,609.0,501.0,,815.0,left,A,False,left,1.0,0.0,696.0,696.0,0.0,2.0,0.0,2.0,1.0,0.0,1.0,0.0,left,276.0,left,696.0,exclusive.A
participant_011,b,15,experiment,18,6,1,contrastive,y,6b,6a,6b,730.0,492.0,627.0,514.0,502.0,493.0,446.0,,864.0,right,A,True,right,0.128,0.872,718.0,92.0,626.0,1.0,2.0,3.0,0.0,1.0,1.0,1.0,left,92.0,left,92.0,contrastive.A
participant_011,b,37,experiment,20,7,1,focus,y,7b,7a,,442.0,379.0,404.0,421.0,420.0,391.0,384.0,,549.0,right,A,False,left,1.0,0.0,134.0,134.0,0.0,1.0,0.0,1.0,0.0,0.0,0.0,0.0,left,134.0,left,134.0,focus.A
participant_011,b,17,experiment,22,8,1,exclusive,y,8b,8a,8a,561.0,516.0,462.0,423.0,431.0,495.0,821.0,,796.0,right,A,False,right,0.0,1.0,605.0,0.0,605.0,0.0,3.0,3.0,0.0,2.0,2.0,0.0,right,164.0,right,605.0,exclusive.A
participant_011,b,12,experiment,27,9,1,contrastive,n,9a,9b,9b,681.0,583.0,514.0,543.0,561.0,548.0,544.0,,1115.0,left,A,True,left,1.0,0.0,753.0,753.0,0.0,1.0,0.0,1.0,0.0,0.0,0.0,0.0,left,753.0,left,753.0,contrastive.A
participant_011,b,21,experiment,29,10,1,focus,n,10a,10b,,500.0,560.0,560.0,561.0,558.0,561.0,570.0,,764.0,left,A,False,left,1.0,0.0,578.0,578.0,0.0,1.0,0.0,1.0,0.0,0.0,0.0,0.0,left,578.0,left,578.0,focus.A
participant_011,b,39,experiment,31,11,1,exclusive,n,11a,11b,11a,497.0,396.0,334.0,364.0,427.0,347.0,457.0,,650.0,left,A,False,right,0.294,0.706,313.0,92.0,221.0,1.0,2.0,3.0,0.0,1.0,1.0,1.0,left,92.0,left,92.0,exclusive.A
participant_011,b,41,experiment,36,12,1,contrastive,y,12b,12a,12b,1240.0,467.0,418.0,505.0,430.0,374.0,474.0,,456.0,right,A,True,right,0.0,1.0,229.0,0.0,229.0,0.0,1.0,1.0,0.0,0.0,0.0,0.0,right,229.0,right,229.0,contrastive.A
participant_011,b,14,experiment,38,13,1,focus,y,13b,13a,,538.0,537.0,441.0,473.0,458.0,523.0,793.0,,755.0,right,A,False,right,0.0,1.0,732.0,0.0,732.0,0.0,2.0,2.0,0.0,1.0,1.0,0.0,right,220.0,right,732.0,focus.A
participant_011,b,29,experiment,40,14,1,exclusive,y,14b,14a,14a,488.0,421.0,413.0,435.0,440.0,449.0,750.0,,1114.0,right,A,False,right,0.176,0.824,998.0,176.0,822.0,1.0,2.0,3.0,0.0,1.0,1.0,1.0,right,507.0,right,822.0,exclusive.A
participant_011,b,46,experiment,45,15,1,contrastive,n,15a,15b,15b,437.0,418.0,569.0,539.0,526.0,524.0,1581.0,,625.0,left,A,True,,,,1134.1947858472997,,,,,5.216014897579144,,,,2.0595903165735567,,226.12327746741155,,404.29422718808195,contrastive.A
participant_011,b,18,experiment,47,16,1,focus,n,16a,16b,,452.0,502.0,475.0,484.0,500.0,500.0,489.0,,788.0,left,A,False,left,1.0,0.0,771.0,771.0,0.0,1.0,0.0,1.0,0.0,0.0,0.0,0.0,left,771.0,left,771.0,focus.A
participant_011,b,23,experiment,49,17,1,exclusive,n,17a,17b,17a,508.0,477.0,415.0,600.0,544.0,457.0,434.0,,669.0,left,A,False,left,1.0,0.0,235.0,235.0,0.0,1.0,0.0,1.0,0.0,0.0,0.0,0.0,left,235.0,left,235.0,exclusive.A
participant_011,b,43,experiment,54,18,1,contrastive,y,18b,18a,18b,525.0,499.0,410.0,354.0,416.0,384.0,602.0,,564.0,right,A,True,left,0.518,0.482,361.0,187.0,174.0,1.0,1.0,2.0,0.0,0.0,0.0,1.0,right,174.0,right,174.0,contrastive.A
participant_012,c,33,experiment,3,1,1,contrastive,n,1a,1b,1b,478.0,243.0,272.0,367.0,270.0,340.0,351.0,,515.0,right,B,False,right,0.153,0.847,354.0,54.0,300.0,1.0,1.0,2.0,0.0,0.0,0.0,1.0,left,54.0,left,54.0,contrastive.B
participant_012,c,36,experiment,5,2,1,focus,n,2a,2b,,556.0,206.0,263.0,293.0,303.0,564.0,350.0,,480.0,left,A,False,left,1.0,0.0,217.0,217.0,0.0,2.0,0.0,2.0,1.0,0.0,1.0,0.0,left,66.0,left,217.0,focus.A
participant_012,c,34,experiment,7,3,1,exclusive,n,3a,3b,3a,349.0,271.0,214.0,349.0,374.0,677.0,448.0,,786.0,left,A,False,left,0.814,0.186,505.0,411.0,94.0,4.0,1.0,5.0,3.0,0.0,3.0,2.0,left,69.0,left,69.0,exclusive.A
participant_012,c,47,experiment,12,4,1,contrastive,y,4b,4a,4b,457.0,178.0,337.0,404.0,411.0,369.0,381.0,,544.0,left,B,False,right,0.156,0.844,352.0,55.0,297.0,1.0,3.0,4.0,0.0,2.0,2.0,2.0,right,61.0,right,244.0,contrastive.B
participant_012,c,27,experiment,14,5,1,focus,y,5b,5a,,346.0,321.0,332.0,315.0,327.0,321.0,347.0,,799.0,right,A,False,right,0.0,1.0,650.0,0.0,650.0,0.0,2.0,2.0,0.0,1.0,1.0,0.0,right,134.0,right,650.0,focus.A
participant_012,c,17,experiment,16,6,1,exclusive,y,6b,6a,6a,444.0,300.0,335.0,369.0,351.0,394.0,389.0,,693.0,right,A,False,right,0.419,0.581,561.0,235.0,326.0,2.0,2.0,4.0,1.0,1.0,2.0,1.0,left,66.0,left,235.0,exclusive.A
participant_012,c,49,experiment,21,7,1,contrastive,n,7a,7b,7b,277.0,279.0,311.0,317.0,301.0,419.0,363.0,,505.0,right,B,False,right,0.387,0.613,300.0,116.0,184.0,1.0,1.0,2.0,0.0,0.0,0.0,1.0,left,116.0,left,116.0,contrastive.B
participant_012,c,12,experiment,23,8,1,focus,n,8a,8b,,606.0,415.0,492.0,373.0,433.0,398.0,449.0,,1020.0,left,A,False,left,1.0,0.0,889.0,889.0,0.0,4.0,0.0,4.0,3.0,0.0,3.0,0.0,left,152.0,left,889.0,focus.A
participant_012,c,40,experiment,25,9,1,exclusive,n,9a,9b,9a,280.0,252.0,257.0,299.0,292.0,325.0,325.0,,666.0,left,A,False,left,1.0,0.0,449.0,449.0,0.0,2.0,0.0,2.0,1.0,0.0,1.0,0.0,left,358.0,left,449.0,exclusive.A
participant_012,c,43,experiment,30,10,1,contrastive,y,10b,10a,10b,366.0,299.0,364.0,287.0,315.0,324.0,467.0,,609.0,left,B,False,right,0.47,0.53,564.0,265.0,299.0,1.0,1.0,2.0,0.0,0.0,0.0,1.0,right,299.0,right,299.0,contrastive.B
participant_012,c,22,experiment,32,11,1,focus,y,11b,11a,,420.0,310.0,301.0,355.0,364.0,446.0,640.0,,826.0,right,A,False,left,0.585,0.415,511.0,299.0,212.0,1.0,1.0,2.0,0.0,0.0,0.0,1.0,left,299.0,left,299.0,focus.A
participant_012,c,10,experiment,34,12,1,exclusive,y,12b,12a,12a,489.0,400.0,494.0,388.0,469.0,710.0,596.0,,2051.0,right,A,False,right,0.314,0.686,1823.0,572.0,1251.0,1.0,2.0,3.0,0.0,1.0,1.0,2.0,right,698.0,right,698.0,exclusive.A
participant_012,c,20,experiment,39,13,1,contrastive,n,13a,13b,13b,295.0,306.0,325.0,343.0,375.0,386.0,919.0,,1343.0,left,A,True,left,0.509,0.491,919.0,468.0,451.0,1.0,1.0,2.0,0.0,0.0,0.0,1.0,right,451.0,right,451.0,contrastive.A
participant_012,c,29,experiment,41,14,1,focus,n,14a,14b,,321.0,266.0,368.0,216.0,420.0,331.0,598.0,,3033.0,left,A,False,left,0.618,0.382,1713.3,1059.0,654.3,3.0,2.0,5.0,2.0,1.0,3.0,4.0,left,215.0,left,215.0,focus.A
participant_012,c,15,experiment,43,15,1,exclusive,n,15a,15b,15a,516.0,384.0,300.0,300.0,373.0,443.0,387.0,,634.0,left,A,False,left,1.0,0.0,509.0,509.0,0.0,2.0,0.0,2.0,1.0,0.0,1.0,0.0,left,130.0,left,509.0,exclusive.A
participant_012,c,25,experiment,48,16,1,contrastive,y,16b,16a,16b,293.0,320.0,315.0,321.0,312.0,364.0,587.0,,2800.0,left,B,False,left,0.724,0.276,1401.3,1014.0,387.3,5.0,2.0,7.0,4.0,1.0,5.0,4.0,left,201.0,left,201.0,contrastive.B
participant_012,c,24,experiment,50,17,1,focus,y,17b,17a,,337.0,382.0,306.0,366.0,382.0,565.0,453.0,,1276.0,right,A,False,right,0.13,0.87,806.0,105.0,701.0,2.0,1.0,3.0,1.0,0.0,1.0,2.0,left,51.0,left,51.0,focus.A
participant_012,c,38,experiment,52,18,1,exclusive,y,18b,18a,18a,317.0,271.0,277.0,322.0,353.0,314.0,350.0,,699.0,left,B,True,left,1.0,0.0,542.0,542.0,0.0,2.0,0.0,2.0,1.0,0.0,1.0,0.0,left,143.0,left,542.0,exclusive.B
participant_013,a,36,experiment,1,1,1,exclusive,n,1a,1b,1a,249.0,417.0,419.0,727.0,468.0,681.0,684.0,,2007.0,left,A,False,left,0.935,0.065,1667.0,1558.0,109.0,5.0,2.0,7.0,4.0,1.0,5.0,4.0,left,99.0,left,99.0,exclusive.A
participant_013,a,50,experiment,6,2,1,contrastive,y,2b,2a,2b,295.0,318.0,331.0,296.0,306.0,255.0,351.0,,1900.0,left,B,False,left,0.836,0.164,323.3,270.3,53.0,1.0,1.0,2.0,0.0,0.0,0.0,1.0,right,53.0,right,53.0,contrastive.B
participant_013,a,18,experiment,8,3,1,focus,y,3b,3a,,568.0,654.0,575.0,721.0,683.0,832.0,648.0,,2168.0,right,A,False,right,0.0,1.0,371.3,0.0,371.3,0.0,2.0,2.0,0.0,1.0,1.0,0.0,right,101.0,right,371.3,focus.A
participant_013,a,43,experiment,10,4,1,exclusive,y,4b,4a,4a,495.0,361.0,518.0,411.0,418.0,389.0,513.0,,1448.0,right,A,False,right,0.203,0.797,418.3,85.0,333.3,1.0,2.0,3.0,0.0,1.0,1.0,1.0,left,85.0,left,85.0,exclusive.A
participant_013,a,10,experiment,15,5,1,contrastive,n,5a,5b,5b,701.0,505.0,714.0,684.0,484.0,487.0,569.0,,2291.0,right,B,False,right,0.188,0.812,1846.0,347.0,1499.0,1.0,6.0,7.0,0.0,5.0,5.0,1.0,left,347.0,left,347.0,contrastive.B
participant_013,a,13,experiment,17,6,1,focus,n,6a,6b,,757.0,785.0,623.0,587.0,625.0,678.0,616.0,,2020.0,left,A,False,right,0.447,0.553,793.3,354.3,439.0,2.0,2.0,4.0,1.0,1.0,2.0,1.0,left,84.0,left,354.3,focus.A
participant_013,a,49,experiment,19,7,1,exclusive,n,7a,7b,7a,467.0,401.0,503.0,399.0,389.0,593.0,784.0,,1583.0,left,A,False,left,0.944,0.056,1184.0,1118.0,66.0,4.0,1.0,5.0,3.0,0.0,3.0,1.0,right,66.0,right,66.0,exclusive.A
participant_013,a,47,experiment,24,8,1,contrastive,y,8b,8a,8b,631.0,475.0,808.0,336.0,354.0,380.0,689.0,,1994.0,left,B,False,left,0.937,0.063,891.0,835.0,56.0,5.0,1.0,6.0,4.0,0.0,4.0,1.0,right,56.0,right,56.0,contrastive.B
participant_013,a,35,experiment,26,9,1,focus,y,9b,9a,,450.0,300.0,471.0,576.0,393.0,480.0,1596.0,,1807.0,right,A,False,right,0.434,0.566,477.3,207.0,270.3,1.0,1.0,2.0,0.0,0.0,0.0,1.0,left,207.0,left,207.0,focus.A
participant_013,a,45,experiment,28,10,1,exclusive,y,10b,10a,10a,217.0,382.0,389.0,378.0,418.0,324.0,410.0,,1336.0,right,A,False,right,0.488,0.512,528.3,258.0,270.3,1.0,1.0,2.0,0.0,0.0,0.0,1.0,left,258.0,left,258.0,exclusive.A
participant_013,a,42,experiment,33,11,1,contrastive,n,11a,11b,11b,371.0,306.0,505.0,325.0,462.0,363.0,440.0,,2003.0,right,B,False,right,0.164,0.836,403.3,66.0,337.3,1.0,2.0,3.0,0.0,1.0,1.0,2.0,right,67.0,right,67.0,contrastive.B
participant_013,a,27,experiment,35,12,1,focus,n,12a,12b,,308.0,506.0,424.0,597.0,549.0,748.0,726.0,,2159.0,left,A,False,left,0.867,0.133,556.3,482.3,74.0,3.0,1.0,4.0,2.0,0.0,2.0,1.0,right,74.0,right,74.0,focus.A
participant_013,a,38,experiment,37,13,1,exclusive,n,13a,13b,13a,483.0,364.0,388.0,500.0,446.0,441.0,1578.0,,10095.0,right,B,True,right,0.425,0.575,6286.9,2671.3,3615.6,12.0,12.0,24.0,11.0,11.0,22.0,7.0,left,86.0,left,661.0,exclusive.B
participant_013,a,31,experiment,42,14,1,contrastive,y,14b,14a,14b,515.0,661.0,1476.0,843.0,475.0,818.0,1729.0,,2531.0,left,B,False,right,0.321,0.679,1518.3,487.3,1031.0,3.0,2.0,5.0,2.0,1.0,3.0,3.0,left,50.0,left,217.0,contrastive.B
participant_013,a,29,experiment,44,15,1,focus,y,15b,15a,,553.0,645.0,944.0,662.0,598.0,735.0,934.0,,1785.0,right,A,False,right,0.0,1.0,690.3,0.0,690.3,0.0,3.0,3.0,0.0,2.0,2.0,0.0,right,66.0,right,690.3,focus.A
participant_013,a,40,experiment,46,16,1,exclusive,y,16b,16a,16a,260.0,521.0,517.0,384.0,379.0,360.0,974.0,,2117.0,right,A,False,left,0.649,0.351,1137.3,738.0,399.3,2.0,2.0,4.0,1.0,1.0,2.0,3.0,left,86.0,left,86.0,exclusive.A
participant_013,a,34,experiment,51,17,1,contrastive,n,17a,17b,17b,482.0,473.0,766.0,795.0,565.0,533.0,5823.0,,2660.0,left,A,True,left,1.0,0.0,1117.3,1117.3,0.0,3.0,0.0,3.0,2.0,0.0,2.0,0.0,left,720.0,left,1117.3,contrastive.A
participant_013,a,21,experiment,53,18,1,focus,n,18a,18b,,575.0,526.0,446.0,503.0,431.0,494.0,460.0,,2995.0,right,B,False,right,0.268,0.732,2529.0,677.0,1852.0,2.0,6.0,8.0,1.0,5.0,6.0,2.0,right,58.0,right,58.0,focus.B
participant_014,b,34,experiment,2,1,1,focus,y,1b,1a,,331.0,370.0,230.0,166.0,402.0,345.0,335.0,,644.0,right,A,False,right,0.0,1.0,504.0,0.0,504.0,0.0,1.0,1.0,0.0,0.0,0.0,0.0,right,504.0,right,504.0,focus.A
participant_014,b,26,experiment,4,2,1,exclusive,y,2b,2a,2a,376.0,273.0,261.0,306.0,425.0,331.0,407.0,,557.0,right,A,False,right,0.0,1.0,506.0,0.0,506.0,0.0,1.0,1.0,0.0,0.0,0.0,0.0,right,506.0,right,506.0,exclusive.A
participant_014,b,49,experiment,9,3,1,contrastive,n,3a,3b,3b,316.0,200.0,160.0,110.0,339.0,517.0,382.0,,519.0,left,A,True,left,1.0,0.0,536.0,536.0,0.0,1.0,0.0,1.0,0.0,0.0,0.0,0.0,left,536.0,left,536.0,contrastive.A
participant_014,b,25,experiment,11,4,1,focus,n,4a,4b,,380.0,254.0,240.0,656.0,447.0,480.0,575.0,,591.0,left,A,False,left,1.0,0.0,367.0,367.0,0.0,2.0,0.0,2.0,1.0,0.0,1.0,0.0,left,142.0,left,367.0,focus.A
participant_014,b,13,experiment,13,5,1,exclusive,n,5a,5b,5a,248.0,183.0,165.0,125.0,428.0,376.0,445.0,,2534.0,left,A,False,left,1.0,0.0,702.0,702.0,0.0,6.0,0.0,6.0,5.0,0.0,5.0,0.0,left,137.0,left,702.0,exclusive.A
participant_014,b,15,experiment,18,6,1,contrastive,y,6b,6a,6b,255.0,184.0,168.0,154.0,158.0,325.0,317.0,,687.0,right,A,True,left,0.703,0.297,555.0,390.0,165.0,2.0,2.0,4.0,1.0,1.0,2.0,3.0,left,328.0,left,328.0,contrastive.A
participant_014,b,37,experiment,20,7,1,focus,y,7b,7a,,379.0,276.0,384.0,359.0,372.0,591.0,361.0,,500.0,right,A,False,right,0.0,1.0,449.0,0.0,449.0,0.0,1.0,1.0,0.0,0.0,0.0,0.0,right,449.0,right,449.0,focus.A
participant_014,b,17,experiment,22,8,1,exclusive,y,8b,8a,8a,415.0,264.0,211.0,278.0,379.0,358.0,384.0,,616.0,right,A,False,right,0.0,1.0,373.0,0.0,373.0,0.0,2.0,2.0,0.0,1.0,1.0,0.0,right,171.0,right,373.0,exclusive.A
participant_014,b,12,experiment,27,9,1,contrastive,n,9a,9b,9b,354.0,238.0,183.0,356.0,312.0,285.0,426.0,,606.0,left,A,True,left,0.663,0.337,436.0,289.0,147.0,1.0,1.0,2.0,0.0,0.0,0.0,1.0,right,147.0,right,147.0,contrastive.A
participant_014,b,21,experiment,29,10,1,focus,n,10a,10b,,346.0,227.0,188.0,389.0,380.0,418.0,394.0,,565.0,left,A,False,left,1.0,0.0,466.0,466.0,0.0,1.0,0.0,1.0,0.0,0.0,0.0,0.0,left,466.0,left,466.0,focus.A
participant_014,b,39,experiment,31,11,1,exclusive,n,11a,11b,11a,426.0,272.0,287.0,373.0,383.0,351.0,422.0,,1024.0,left,A,False,left,0.92,0.08,764.0,703.0,61.0,3.0,1.0,4.0,2.0,0.0,2.0,1.0,right,61.0,right,61.0,exclusive.A
participant_014,b,41,experiment,36,12,1,contrastive,y,12b,12a,12b,236.0,170.0,141.0,132.0,449.0,640.0,521.0,,550.0,right,A,True,right,0.0,1.0,535.0,0.0,535.0,0.0,1.0,1.0,0.0,0.0,0.0,0.0,right,535.0,right,535.0,contrastive.A
participant_014,b,14,experiment,38,13,1,focus,y,13b,13a,,285.0,191.0,172.0,175.0,383.0,352.0,407.0,,831.0,right,A,False,right,0.0,1.0,520.0,0.0,520.0,0.0,1.0,1.0,0.0,0.0,0.0,0.0,right,520.0,right,520.0,focus.A
participant_014,b,29,experiment,40,14,1,exclusive,y,14b,14a,14a,310.0,239.0,204.0,141.0,352.0,374.0,397.0,,501.0,right,A,False,right,0.0,1.0,447.0,0.0,447.0,0.0,1.0,1.0,0.0,0.0,0.0,0.0,right,447.0,right,447.0,exclusive.A
participant_014,b,46,experiment,45,15,1,contrastive,n,15a,15b,15b,328.0,245.0,182.0,358.0,322.0,356.0,425.0,,649.0,left,A,True,left,1.0,0.0,400.0,400.0,0.0,1.0,0.0,1.0,0.0,0.0,0.0,0.0,left,400.0,left,400.0,contrastive.A
participant_014,b,18,experiment,47,16,1,focus,n,16a,16b,,315.0,203.0,158.0,147.0,131.0,345.0,836.0,,811.0,left,A,False,left,1.0,0.0,439.0,439.0,0.0,2.0,0.0,2.0,1.0,0.0,1.0,0.0,left,55.0,left,439.0,focus.A
participant_014,b,23,experiment,49,17,1,exclusive,n,17a,17b,17a,267.0,216.0,154.0,177.0,304.0,350.0,316.0,,504.0,left,A,False,left,1.0,0.0,456.0,456.0,0.0,1.0,0.0,1.0,0.0,0.0,0.0,0.0,left,456.0,left,456.0,exclusive.A
participant_014,b,43,experiment,54,18,1,contrastive,y,18b,18a,18b,303.0,213.0,147.0,149.0,375.0,315.0,368.0,,476.0,right,A,True,right,0.0,1.0,424.0,0.0,424.0,0.0,1.0,1.0,0.0,0.0,0.0,0.0,right,424.0,right,424.0,contrastive.A
participant_015,c,33,experiment,3,1,1,contrastive,n,1a,1b,1b,1026.0,522.0,528.0,596.0,1285.0,1865.0,3318.0,,4032.0,right,B,False,right,0.207,0.793,3225.0,669.0,2556.0,4.0,6.0,10.0,3.0,5.0,8.0,5.0,left,122.0,left,122.0,contrastive.B
participant_015,c,36,experiment,5,2,1,focus,n,2a,2b,,602.0,522.0,471.0,643.0,561.0,739.0,1228.0,,4211.0,left,A,False,left,0.945,0.055,2617.0,2473.0,144.0,11.0,1.0,12.0,10.0,0.0,10.0,1.0,right,144.0,right,144.0,focus.A
participant_015,c,34,experiment,7,3,1,exclusive,n,3a,3b,3a,564.0,878.0,483.0,843.0,595.0,1085.0,958.0,,3523.0,left,A,False,left,0.516,0.484,1265.3,652.3,613.0,2.0,2.0,4.0,1.0,1.0,2.0,1.0,right,93.0,right,613.0,exclusive.A
participant_015,c,47,experiment,12,4,1,contrastive,y,4b,4a,4b,467.0,521.0,573.0,521.0,512.0,810.0,1227.0,,16275.0,left,B,False,left,0.745,0.255,5616.5,4183.6,1432.9,13.0,5.0,18.0,12.0,4.0,16.0,8.0,left,217.0,left,487.3,contrastive.B
participant_015,c,27,experiment,14,5,1,focus,y,5b,5a,,394.0,632.0,517.0,610.0,539.0,998.0,1312.0,,3655.0,right,A,False,right,0.468,0.532,1857.0,869.0,988.0,5.0,7.0,12.0,4.0,6.0,10.0,5.0,left,51.0,left,244.0,focus.A
participant_015,c,17,experiment,16,6,1,exclusive,y,6b,6a,6a,774.0,499.0,1267.0,1012.0,689.0,981.0,565.0,,1830.0,right,A,False,right,0.187,0.813,509.0,95.0,414.0,1.0,3.0,4.0,0.0,2.0,2.0,2.0,right,184.0,right,184.0,exclusive.A
participant_015,c,49,experiment,21,7,1,contrastive,n,7a,7b,7b,429.0,495.0,456.0,539.0,636.0,1055.0,884.0,,5009.0,right,B,False,right,0.488,0.512,1821.6,889.0,932.6,4.0,3.0,7.0,3.0,2.0,5.0,3.0,left,69.0,left,69.0,contrastive.B
participant_015,c,12,experiment,23,8,1,focus,n,8a,8b,,747.0,516.0,453.0,501.0,495.0,557.0,678.0,,2785.0,left,A,False,left,1.0,0.0,1499.0,1499.0,0.0,8.0,0.0,8.0,7.0,0.0,7.0,0.0,left,404.0,left,1499.0,focus.A
participant_015,c,40,experiment,25,9,1,exclusive,n,9a,9b,9a,637.0,468.0,864.0,569.0,556.0,681.0,628.0,,4779.0,left,A,False,left,0.614,0.386,2474.3,1518.0,956.3,13.0,3.0,16.0,12.0,2.0,14.0,3.0,right,70.0,right,70.0,exclusive.A
participant_015,c,43,experiment,30,10,1,contrastive,y,10b,10a,10b,519.0,791.0,721.0,543.0,517.0,717.0,870.0,,6092.0,left,B,False,left,0.658,0.342,4228.3,2780.3,1448.0,13.0,7.0,20.0,12.0,6.0,18.0,9.0,left,240.0,left,240.0,contrastive.B
participant_015,c,22,experiment,32,11,1,focus,y,11b,11a,,484.0,992.0,659.0,1312.0,705.0,1113.0,1187.0,,10820.0,left,B,False,left,0.549,0.451,5918.6,3251.6,2667.0,19.0,16.0,35.0,18.0,15.0,33.0,11.0,right,70.0,right,146.0,focus.B
participant_015,c,10,experiment,34,12,1,exclusive,y,12b,12a,12a,1425.0,892.0,702.0,743.0,667.0,844.0,1152.0,,9397.0,right,A,False,right,0.498,0.502,5950.0,2965.0,2985.0,21.0,20.0,41.0,20.0,19.0,39.0,11.0,left,462.0,left,611.0,exclusive.A
participant_015,c,20,experiment,39,13,1,contrastive,n,13a,13b,13b,812.0,693.0,803.0,1143.0,620.0,1227.0,909.0,,3445.0,left,A,True,left,0.895,0.105,2430.0,2175.0,255.0,9.0,2.0,11.0,8.0,1.0,9.0,4.0,left,72.0,left,601.0,contrastive.A
participant_015,c,29,experiment,41,14,1,focus,n,14a,14b,,765.0,528.0,586.0,685.0,595.0,967.0,2786.0,,9094.0,left,A,False,right,0.309,0.691,4999.0,1547.0,3452.0,10.0,21.0,31.0,9.0,20.0,29.0,9.0,right,418.0,right,492.0,focus.A
participant_015,c,15,experiment,43,15,1,exclusive,n,15a,15b,15a,1113.0,2069.0,624.0,1388.0,585.0,821.0,1754.0,,3400.0,left,A,False,left,0.744,0.256,1826.0,1359.0,467.0,7.0,3.0,10.0,6.0,2.0,8.0,5.0,right,362.0,right,362.0,exclusive.A
participant_015,c,25,experiment,48,16,1,contrastive,y,16b,16a,16b,558.0,502.0,792.0,680.0,633.0,959.0,1072.0,,3014.0,right,A,True,right,0.202,0.798,2163.0,438.0,1725.0,3.0,6.0,9.0,2.0,5.0,7.0,3.0,right,72.0,right,978.0,contrastive.A
participant_015,c,24,experiment,50,17,1,focus,y,17b,17a,,846.0,889.0,926.0,1019.0,815.0,1001.0,1093.0,,2275.0,right,A,False,right,0.229,0.771,1698.0,388.0,1310.0,1.0,3.0,4.0,0.0,2.0,2.0,2.0,right,75.0,right,540.0,focus.A
participant_015,c,38,experiment,52,18,1,exclusive,y,18b,18a,18a,552.0,481.0,600.0,554.0,554.0,678.0,1207.0,,3579.0,right,A,False,right,0.492,0.508,1854.3,913.0,941.3,3.0,2.0,5.0,2.0,1.0,3.0,2.0,right,270.3,right,270.3,exclusive.A
participant_016,a,36,experiment,1,1,1,exclusive,n,1a,1b,1a,309.0,235.0,251.0,237.0,440.0,247.0,268.0,,759.0,left,A,False,left,0.755,0.245,633.0,478.0,155.0,2.0,2.0,4.0,1.0,1.0,2.0,2.0,left,424.0,left,424.0,exclusive.A
participant_016,a,50,experiment,6,2,1,contrastive,y,2b,2a,2b,336.0,222.0,199.0,191.0,180.0,156.0,192.0,,416.0,right,A,True,right,0.0,1.0,429.0,0.0,429.0,0.0,1.0,1.0,0.0,0.0,0.0,0.0,right,429.0,right,429.0,contrastive.A
participant_016,a,18,experiment,8,3,1,focus,y,3b,3a,,373.0,259.0,251.0,229.0,227.0,227.0,228.0,,2164.0,right,A,False,right,0.265,0.735,2083.0,552.0,1531.0,2.0,3.0,5.0,1.0,2.0,3.0,4.0,right,416.0,right,416.0,focus.A
participant_016,a,43,experiment,10,4,1,exclusive,y,4b,4a,4a,251.0,205.0,179.0,516.0,173.0,343.0,161.0,,656.0,right,A,False,right,0.0,1.0,610.0,0.0,610.0,0.0,2.0,2.0,0.0,1.0,1.0,0.0,right,176.0,right,610.0,exclusive.A
participant_016,a,10,experiment,15,5,1,contrastive,n,5a,5b,5b,498.0,335.0,333.0,304.0,370.0,311.0,1204.0,,1938.0,left,A,True,right,0.5,0.5,1417.0,708.0,709.0,2.0,3.0,5.0,1.0,2.0,3.0,3.0,left,162.0,left,162.0,contrastive.A
participant_016,a,13,experiment,17,6,1,focus,n,6a,6b,,416.0,326.0,343.0,330.0,395.0,332.0,355.0,,645.0,left,A,False,left,1.0,0.0,455.0,455.0,0.0,3.0,0.0,3.0,2.0,0.0,2.0,0.0,left,68.0,left,455.0,focus.A
participant_016,a,49,experiment,19,7,1,exclusive,n,7a,7b,7a,332.0,248.0,184.0,179.0,204.0,207.0,187.0,,427.0,left,A,False,left,1.0,0.0,405.0,405.0,0.0,1.0,0.0,1.0,0.0,0.0,0.0,0.0,left,405.0,left,405.0,exclusive.A
participant_016,a,47,experiment,24,8,1,contrastive,y,8b,8a,8b,349.0,250.0,221.0,228.0,329.0,310.0,244.0,,433.0,right,A,True,right,0.0,1.0,420.0,0.0,420.0,0.0,1.0,1.0,0.0,0.0,0.0,0.0,right,420.0,right,420.0,contrastive.A
participant_016,a,35,experiment,26,9,1,focus,y,9b,9a,,316.0,233.0,198.0,203.0,203.0,179.0,176.0,,493.0,right,A,False,right,0.0,1.0,464.0,0.0,464.0,0.0,1.0,1.0,0.0,0.0,0.0,0.0,right,464.0,right,464.0,focus.A
participant_016,a,45,experiment,28,10,1,exclusive,y,10b,10a,10a,384.0,255.0,213.0,201.0,510.0,214.0,303.0,,491.0,right,A,False,right,0.0,1.0,503.0,0.0,503.0,0.0,1.0,1.0,0.0,0.0,0.0,0.0,right,503.0,right,503.0,exclusive.A
participant_016,a,42,experiment,33,11,1,contrastive,n,11a,11b,11b,271.0,278.0,237.0,250.0,214.0,249.0,375.0,,408.0,left,A,True,left,1.0,0.0,298.0,298.0,0.0,1.0,0.0,1.0,0.0,0.0,0.0,0.0,left,298.0,left,298.0,contrastive.A
participant_016,a,27,experiment,35,12,1,focus,n,12a,12b,,331.0,252.0,248.0,226.0,250.0,222.0,251.0,,421.0,left,A,False,left,1.0,0.0,366.0,366.0,0.0,2.0,0.0,2.0,1.0,0.0,1.0,0.0,left,315.0,left,366.0,focus.A
participant_016,a,38,experiment,37,13,1,exclusive,n,13a,13b,13a,286.0,246.0,232.0,204.0,216.0,403.0,192.0,,444.0,left,A,False,left,1.0,0.0,314.0,314.0,0.0,1.0,0.0,1.0,0.0,0.0,0.0,0.0,left,314.0,left,314.0,exclusive.A
participant_016,a,31,experiment,42,14,1,contrastive,y,14b,14a,14b,246.0,333.0,274.0,282.0,277.0,224.0,237.0,,2703.0,left,B,False,right,0.479,0.521,1999.3,958.3,1041.0,2.0,2.0,4.0,1.0,1.0,2.0,3.0,left,688.0,left,688.0,contrastive.B
participant_016,a,29,experiment,44,15,1,focus,y,15b,15a,,301.0,291.0,273.0,281.0,258.0,269.0,260.0,,573.0,right,A,False,right,0.0,1.0,569.0,0.0,569.0,0.0,1.0,1.0,0.0,0.0,0.0,0.0,right,569.0,right,569.0,focus.A
participant_016,a,40,experiment,46,16,1,exclusive,y,16b,16a,16a,210.0,222.0,183.0,217.0,157.0,173.0,167.0,,496.0,right,A,False,right,0.0,1.0,428.0,0.0,428.0,0.0,2.0,2.0,0.0,1.0,1.0,0.0,right,242.0,right,428.0,exclusive.A
participant_016,a,34,experiment,51,17,1,contrastive,n,17a,17b,17b,346.0,254.0,227.0,217.0,202.0,214.0,213.0,,456.0,left,A,True,left,1.0,0.0,447.0,447.0,0.0,1.0,0.0,1.0,0.0,0.0,0.0,0.0,left,447.0,left,447.0,contrastive.A
participant_016,a,21,experiment,53,18,1,focus,n,18a,18b,,381.0,339.0,333.0,465.0,382.0,356.0,369.0,,575.0,left,A,False,left,1.0,0.0,564.0,564.0,0.0,1.0,0.0,1.0,0.0,0.0,0.0,0.0,left,564.0,left,564.0,focus.A
participant_017,a,36,experiment,1,1,1,exclusive,n,1a,1b,1a,544.0,605.0,445.0,432.0,415.0,500.0,514.0,,1162.0,left,A,False,left,0.878,0.122,788.0,692.0,96.0,2.0,1.0,3.0,1.0,0.0,1.0,1.0,right,96.0,right,96.0,exclusive.A
participant_017,a,50,experiment,6,2,1,contrastive,y,2b,2a,2b,534.0,446.0,495.0,481.0,423.0,479.0,386.0,,810.0,right,A,True,right,0.0,1.0,564.0,0.0,564.0,0.0,3.0,3.0,0.0,2.0,2.0,0.0,right,180.0,right,564.0,contrastive.A
participant_017,a,18,experiment,8,3,1,focus,y,3b,3a,,789.0,711.0,603.0,757.0,655.0,911.0,777.0,,1764.0,right,A,False,right,0.237,0.763,354.3,84.0,270.3,1.0,1.0,2.0,0.0,0.0,0.0,1.0,left,84.0,left,84.0,focus.A
participant_017,a,43,experiment,10,4,1,exclusive,y,4b,4a,4a,413.0,664.0,445.0,423.0,417.0,393.0,433.0,,9396.0,right,A,False,right,0.24,0.76,5445.0,1309.0,4136.0,8.0,29.0,37.0,7.0,28.0,35.0,9.0,left,50.0,left,50.0,exclusive.A
participant_017,a,10,experiment,15,5,1,contrastive,n,5a,5b,5b,896.0,761.0,638.0,671.0,820.0,884.0,779.0,,10138.0,right,B,False,right,0.148,0.852,2521.6,372.3,2149.3,3.0,10.0,13.0,2.0,9.0,11.0,6.0,right,86.0,right,173.0,contrastive.B
participant_017,a,13,experiment,17,6,1,focus,n,6a,6b,,664.0,684.0,630.0,558.0,530.0,688.0,566.0,,2423.0,left,A,False,left,0.858,0.142,1327.3,1139.3,188.0,4.0,2.0,6.0,3.0,1.0,4.0,2.0,left,165.0,left,537.3,focus.A
participant_017,a,49,experiment,19,7,1,exclusive,n,7a,7b,7a,546.0,578.0,488.0,454.0,419.0,393.0,500.0,,1715.0,left,A,False,right,0.212,0.788,1100.0,233.0,867.0,2.0,6.0,8.0,1.0,5.0,6.0,3.0,right,102.0,right,336.0,exclusive.A
participant_017,a,47,experiment,24,8,1,contrastive,y,8b,8a,8b,443.0,384.0,409.0,422.0,418.0,443.0,448.0,,1223.0,right,A,True,right,0.0,1.0,1046.0,0.0,1046.0,0.0,4.0,4.0,0.0,3.0,3.0,0.0,right,150.0,right,1046.0,contrastive.A
participant_017,a,35,experiment,26,9,1,focus,y,9b,9a,,577.0,477.0,436.0,432.0,522.0,485.0,522.0,,1404.0,right,A,False,right,0.318,0.682,651.0,207.0,444.0,1.0,4.0,5.0,0.0,3.0,3.0,1.0,left,207.0,left,207.0,focus.A
participant_017,a,45,experiment,28,10,1,exclusive,y,10b,10a,10a,489.0,1084.0,467.0,431.0,461.0,427.0,461.0,,1356.0,right,A,False,right,0.389,0.611,1050.0,408.0,642.0,3.0,5.0,8.0,2.0,4.0,6.0,5.0,left,76.0,left,76.0,exclusive.A
participant_017,a,42,experiment,33,11,1,contrastive,n,11a,11b,11b,405.0,525.0,382.0,407.0,386.0,467.0,488.0,,1716.0,left,A,True,left,0.866,0.134,1031.0,893.0,138.0,4.0,1.0,5.0,3.0,0.0,3.0,1.0,right,138.0,right,138.0,contrastive.A
participant_017,a,27,experiment,35,12,1,focus,n,12a,12b,,564.0,439.0,539.0,547.0,681.0,729.0,557.0,,1479.0,left,A,False,left,0.557,0.443,1473.0,821.0,652.0,1.0,1.0,2.0,0.0,0.0,0.0,1.0,right,652.0,right,652.0,focus.A
participant_017,a,38,experiment,37,13,1,exclusive,n,13a,13b,13a,679.0,435.0,406.0,422.0,446.0,426.0,488.0,,2171.0,left,A,False,left,1.0,0.0,1456.0,1456.0,0.0,7.0,0.0,7.0,6.0,0.0,6.0,0.0,left,54.0,left,1456.0,exclusive.A
participant_017,a,31,experiment,42,14,1,contrastive,y,14b,14a,14b,545.0,458.0,645.0,536.0,469.0,795.0,891.0,,8419.0,right,A,True,right,0.315,0.685,4463.3,1404.3,3059.0,7.0,14.0,21.0,6.0,13.0,19.0,8.0,right,339.0,right,339.0,contrastive.A
participant_017,a,29,experiment,44,15,1,focus,y,15b,15a,,490.0,512.0,518.0,459.0,507.0,516.0,630.0,,1891.0,right,A,False,right,0.211,0.789,1819.0,384.0,1435.0,2.0,3.0,5.0,1.0,2.0,3.0,3.0,left,160.0,left,160.0,focus.A
participant_017,a,40,experiment,46,16,1,exclusive,y,16b,16a,16a,579.0,484.0,411.0,379.0,477.0,429.0,721.0,,3040.0,right,A,False,right,0.16,0.84,2510.0,401.0,2109.0,1.0,9.0,10.0,0.0,8.0,8.0,2.0,right,55.0,right,2011.0,exclusive.A
participant_017,a,34,experiment,51,17,1,contrastive,n,17a,17b,17b,628.0,553.0,540.0,536.0,463.0,526.0,471.0,,1365.0,left,A,True,left,1.0,0.0,1120.0,1120.0,0.0,4.0,0.0,4.0,3.0,0.0,3.0,0.0,left,86.0,left,1120.0,contrastive.A
participant_017,a,21,experiment,53,18,1,focus,n,18a,18b,,726.0,736.0,598.0,595.0,584.0,570.0,542.0,,1165.0,left,A,False,left,0.703,0.297,1138.0,800.0,338.0,4.0,2.0,6.0,3.0,1.0,4.0,4.0,left,62.0,left,62.0,focus.A
participant_018,a,36,experiment,1,1,1,exclusive,n,1a,1b,1a,386.0,284.0,337.0,403.0,389.0,507.0,498.0,,2111.0,left,A,False,left,0.73,0.27,1765.0,1288.0,477.0,5.0,3.0,8.0,4.0,2.0,6.0,5.0,right,333.0,right,333.0,exclusive.A
participant_018,a,50,experiment,6,2,1,contrastive,y,2b,2a,2b,397.0,524.0,373.0,371.0,291.0,366.0,443.0,,1036.0,left,B,False,left,0.686,0.314,605.0,415.0,190.0,3.0,2.0,5.0,2.0,1.0,3.0,3.0,right,126.0,right,126.0,contrastive.B
participant_018,a,18,experiment,8,3,1,focus,y,3b,3a,,513.0,554.0,600.0,516.0,555.0,564.0,852.0,,778.0,right,A,False,right,0.0,1.0,771.0,0.0,771.0,0.0,1.0,1.0,0.0,0.0,0.0,0.0,right,771.0,right,771.0,focus.A
participant_018,a,43,experiment,10,4,1,exclusive,y,4b,4a,4a,469.0,404.0,510.0,453.0,411.0,440.0,481.0,,1352.0,right,A,False,right,0.0,1.0,619.0,0.0,619.0,0.0,2.0,2.0,0.0,1.0,1.0,0.0,right,552.0,right,619.0,exclusive.A
participant_018,a,10,experiment,15,5,1,contrastive,n,5a,5b,5b,1113.0,1042.0,1182.0,1068.0,967.0,988.0,3029.0,,6845.0,right,B,False,right,0.339,0.661,4356.6,1475.3,2881.3,6.0,9.0,15.0,5.0,8.0,13.0,11.0,left,110.0,left,110.0,contrastive.B
participant_018,a,13,experiment,17,6,1,focus,n,6a,6b,,632.0,1052.0,899.0,858.0,716.0,687.0,779.0,,1047.0,left,A,False,left,0.927,0.073,871.0,807.0,64.0,2.0,1.0,3.0,1.0,0.0,1.0,2.0,left,310.0,left,310.0,focus.A
participant_018,a,49,experiment,19,7,1,exclusive,n,7a,7b,7a,438.0,358.0,351.0,400.0,320.0,346.0,465.0,,925.0,left,A,False,left,1.0,0.0,790.0,790.0,0.0,3.0,0.0,3.0,2.0,0.0,2.0,0.0,left,61.0,left,790.0,exclusive.A
participant_018,a,47,experiment,24,8,1,contrastive,y,8b,8a,8b,331.0,534.0,237.0,419.0,342.0,374.0,454.0,,893.0,left,B,False,left,1.0,0.0,850.0,850.0,0.0,1.0,0.0,1.0,0.0,0.0,0.0,0.0,left,850.0,left,850.0,contrastive.B
participant_018,a,35,experiment,26,9,1,focus,y,9b,9a,,431.0,404.0,366.0,458.0,471.0,438.0,769.0,,1864.0,right,A,False,right,0.214,0.786,1512.0,323.0,1189.0,4.0,4.0,8.0,3.0,3.0,6.0,6.0,right,140.0,right,140.0,focus.A
participant_018,a,45,experiment,28,10,1,exclusive,y,10b,10a,10a,385.0,305.0,405.0,376.0,338.0,390.0,417.0,,1269.0,right,A,False,right,0.201,0.799,338.3,68.0,270.3,1.0,1.0,2.0,0.0,0.0,0.0,1.0,left,68.0,left,68.0,exclusive.A
participant_018,a,42,experiment,33,11,1,contrastive,n,11a,11b,11b,337.0,295.0,293.0,336.0,410.0,462.0,427.0,,1475.0,left,A,True,right,0.467,0.533,1065.0,497.0,568.0,4.0,2.0,6.0,3.0,1.0,4.0,3.0,right,122.0,right,122.0,contrastive.A
participant_018,a,27,experiment,35,12,1,focus,n,12a,12b,,502.0,462.0,370.0,430.0,432.0,495.0,539.0,,966.0,left,A,False,left,0.911,0.089,894.0,814.0,80.0,2.0,1.0,3.0,1.0,0.0,1.0,2.0,left,183.0,left,183.0,focus.A
participant_018,a,38,experiment,37,13,1,exclusive,n,13a,13b,13a,438.0,331.0,396.0,342.0,332.0,465.0,464.0,,737.0,left,A,False,left,0.915,0.085,601.0,550.0,51.0,2.0,1.0,3.0,1.0,0.0,1.0,2.0,left,62.0,left,62.0,exclusive.A
participant_018,a,31,experiment,42,14,1,contrastive,y,14b,14a,14b,500.0,431.0,430.0,462.0,475.0,433.0,633.0,,2638.0,left,B,False,left,0.634,0.366,1646.3,1043.3,603.0,2.0,3.0,5.0,1.0,2.0,3.0,3.0,right,334.0,right,334.0,contrastive.B
participant_018,a,29,experiment,44,15,1,focus,y,15b,15a,,465.0,365.0,463.0,606.0,464.0,570.0,658.0,,1209.0,right,A,False,right,0.496,0.504,933.0,463.0,470.0,3.0,3.0,6.0,2.0,2.0,4.0,3.0,left,199.0,left,199.0,focus.A
participant_018,a,40,experiment,46,16,1,exclusive,y,16b,16a,16a,391.0,389.0,341.0,373.0,390.0,396.0,454.0,,1112.0,right,A,False,left,0.534,0.466,968.0,517.0,451.0,3.0,3.0,6.0,2.0,2.0,4.0,3.0,left,399.0,left,453.0,exclusive.A
participant_018,a,34,experiment,51,17,1,contrastive,n,17a,17b,17b,426.0,328.0,386.0,495.0,430.0,463.0,463.0,,993.0,right,B,False,right,0.317,0.683,867.0,275.0,592.0,2.0,3.0,5.0,1.0,2.0,3.0,3.0,left,204.0,left,204.0,contrastive.B
participant_018,a,21,experiment,53,18,1,focus,n,18a,18b,,566.0,506.0,465.0,499.0,571.0,932.0,523.0,,877.0,left,A,False,left,1.0,0.0,702.0,702.0,0.0,1.0,0.0,1.0,0.0,0.0,0.0,0.0,left,702.0,left,702.0,focus.A
participant_019,c,33,experiment,3,1,1,contrastive,n,1a,1b,1b,483.0,396.0,428.0,405.0,402.0,612.0,481.0,,1130.0,right,B,False,right,0.0,1.0,820.0,0.0,820.0,0.0,2.0,2.0,0.0,1.0,1.0,0.0,right,633.0,right,820.0,contrastive.B
participant_019,c,36,experiment,5,2,1,focus,n,2a,2b,,440.0,342.0,384.0,444.0,431.0,484.0,476.0,,1052.0,left,A,False,left,1.0,0.0,828.0,828.0,0.0,4.0,0.0,4.0,3.0,0.0,3.0,0.0,left,57.0,left,828.0,focus.A
participant_019,c,34,experiment,7,3,1,exclusive,n,3a,3b,3a,473.0,393.0,366.0,443.0,408.0,888.0,383.0,,1006.0,left,A,False,left,1.0,0.0,885.0,885.0,0.0,2.0,0.0,2.0,1.0,0.0,1.0,0.0,left,251.0,left,885.0,exclusive.A
participant_019,c,47,experiment,12,4,1,contrastive,y,4b,4a,4b,449.0,346.0,370.0,468.0,373.0,349.0,434.0,,1091.0,left,B,False,left,1.0,0.0,660.0,660.0,0.0,2.0,0.0,2.0,1.0,0.0,1.0,0.0,left,127.0,left,660.0,contrastive.B
participant_019,c,27,experiment,14,5,1,focus,y,5b,5a,,512.0,539.0,449.0,383.0,434.0,397.0,576.0,,1985.0,right,A,False,left,0.63,0.37,1553.0,978.0,575.0,4.0,1.0,5.0,3.0,0.0,3.0,1.0,left,341.0,left,978.0,focus.A
participant_019,c,17,experiment,16,6,1,exclusive,y,6b,6a,6a,502.0,501.0,492.0,481.0,445.0,541.0,456.0,,1475.0,right,A,False,right,0.104,0.896,820.0,85.0,735.0,1.0,2.0,3.0,0.0,1.0,1.0,2.0,right,85.0,right,85.0,exclusive.A
participant_019,c,49,experiment,21,7,1,contrastive,n,7a,7b,7b,458.0,311.0,329.0,326.0,301.0,353.0,380.0,,1072.0,right,B,False,right,0.303,0.697,749.0,227.0,522.0,3.0,1.0,4.0,2.0,0.0,2.0,1.0,left,90.0,left,227.0,contrastive.B
participant_019,c,12,experiment,23,8,1,focus,n,8a,8b,,748.0,669.0,468.0,504.0,546.0,604.0,505.0,,1880.0,left,A,False,left,0.796,0.204,692.0,551.0,141.0,4.0,1.0,5.0,3.0,0.0,3.0,2.0,left,162.0,left,162.0,focus.A
participant_019,c,40,experiment,25,9,1,exclusive,n,9a,9b,9a,481.0,397.0,325.0,494.0,417.0,404.0,475.0,,1227.0,left,A,False,left,0.738,0.262,1034.0,763.0,271.0,2.0,2.0,4.0,1.0,1.0,2.0,2.0,left,51.0,left,51.0,exclusive.A
participant_019,c,43,experiment,30,10,1,contrastive,y,10b,10a,10b,455.0,392.0,351.0,489.0,439.0,413.0,800.0,,1240.0,left,B,False,left,1.0,0.0,1103.0,1103.0,0.0,2.0,0.0,2.0,1.0,0.0,1.0,0.0,left,352.0,left,1103.0,contrastive.B
participant_019,c,22,experiment,32,11,1,focus,y,11b,11a,,434.0,549.0,479.0,435.0,492.0,728.0,582.0,,1453.0,right,A,False,right,0.0,1.0,1356.0,0.0,1356.0,0.0,3.0,3.0,0.0,2.0,2.0,0.0,right,180.0,right,1356.0,focus.A
participant_019,c,10,experiment,34,12,1,exclusive,y,12b,12a,12a,848.0,913.0,1243.0,988.0,1078.0,1042.0,2302.0,,1895.0,right,A,False,right,0.172,0.828,845.3,145.0,700.3,1.0,3.0,4.0,0.0,2.0,2.0,1.0,left,145.0,left,145.0,exclusive.A
participant_019,c,20,experiment,39,13,1,contrastive,n,13a,13b,13b,556.0,465.0,464.0,481.0,414.0,397.0,865.0,,5265.0,right,B,False,right,0.281,0.719,2705.3,761.0,1944.3,5.0,6.0,11.0,4.0,5.0,9.0,7.0,left,129.0,left,129.0,contrastive.B
participant_019,c,29,experiment,41,14,1,focus,n,14a,14b,,462.0,381.0,332.0,435.0,435.0,684.0,1017.0,,4251.0,left,A,False,left,0.868,0.132,2434.3,2114.0,320.3,6.0,2.0,8.0,5.0,1.0,6.0,1.0,right,50.0,right,320.3,focus.A
participant_019,c,15,experiment,43,15,1,exclusive,n,15a,15b,15a,701.0,553.0,593.0,669.0,523.0,935.0,636.0,,2900.0,left,A,False,right,0.433,0.567,1598.3,692.3,906.0,5.0,5.0,10.0,4.0,4.0,8.0,8.0,left,138.0,left,138.0,exclusive.A
participant_019,c,25,experiment,48,16,1,contrastive,y,16b,16a,16b,451.0,398.0,458.0,467.0,448.0,445.0,918.0,,1263.0,left,B,False,left,1.0,0.0,1057.0,1057.0,0.0,3.0,0.0,3.0,2.0,0.0,2.0,0.0,left,212.0,left,1057.0,contrastive.B
participant_019,c,24,experiment,50,17,1,focus,y,17b,17a,,423.0,393.0,350.0,405.0,1088.0,780.0,1119.0,,1520.0,right,A,False,right,0.4,0.6,1260.0,504.0,756.0,3.0,3.0,6.0,2.0,2.0,4.0,2.0,right,133.0,right,133.0,focus.A
participant_019,c,38,experiment,52,18,1,exclusive,y,18b,18a,18a,448.0,348.0,1172.0,443.0,536.0,494.0,446.0,,6264.0,right,A,False,right,0.27,0.73,2000.9,540.6,1460.3,2.0,7.0,9.0,1.0,6.0,7.0,4.0,right,261.0,right,261.0,exclusive.A
participant_020,a,36,experiment,1,1,1,exclusive,n,1a,1b,1a,483.0,411.0,433.0,511.0,520.0,726.0,651.0,,2434.0,left,A,False,left,0.656,0.344,1816.0,1192.0,624.0,3.0,4.0,7.0,2.0,3.0,5.0,1.0,right,80.0,right,624.0,exclusive.A
participant_020,a,50,experiment,6,2,1,contrastive,y,2b,2a,2b,409.0,368.0,328.0,372.0,338.0,320.0,341.0,,1971.0,left,B,False,left,0.931,0.069,1317.0,1226.0,91.0,6.0,1.0,7.0,5.0,0.0,5.0,1.0,right,91.0,right,91.0,contrastive.B
participant_020,a,18,experiment,8,3,1,focus,y,3b,3a,,426.0,524.0,259.0,334.0,338.0,404.0,463.0,,2060.0,right,A,False,right,0.357,0.643,1446.0,516.0,930.0,4.0,5.0,9.0,3.0,4.0,7.0,1.0,left,249.0,left,516.0,focus.A
participant_020,a,43,experiment,10,4,1,exclusive,y,4b,4a,4a,476.0,364.0,425.0,523.0,443.0,493.0,792.0,,1837.0,right,A,False,right,0.401,0.599,723.3,290.0,433.3,2.0,2.0,4.0,1.0,1.0,2.0,1.0,left,211.0,left,290.0,exclusive.A
participant_020,a,10,experiment,15,5,1,contrastive,n,5a,5b,5b,495.0,451.0,453.0,440.0,462.0,491.0,708.0,,1497.0,right,B,False,right,0.0,1.0,961.0,0.0,961.0,0.0,3.0,3.0,0.0,2.0,2.0,0.0,right,153.0,right,961.0,contrastive.B
participant_020,a,13,experiment,17,6,1,focus,n,6a,6b,,454.0,368.0,369.0,459.0,464.0,393.0,618.0,,1444.0,left,A,False,left,1.0,0.0,1113.0,1113.0,0.0,3.0,0.0,3.0,2.0,0.0,2.0,0.0,left,80.0,left,1113.0,focus.A
participant_020,a,49,experiment,19,7,1,exclusive,n,7a,7b,7a,422.0,338.0,334.0,351.0,431.0,452.0,454.0,,1754.0,left,A,False,left,0.819,0.181,424.3,347.3,77.0,2.0,1.0,3.0,1.0,0.0,1.0,1.0,right,77.0,right,77.0,exclusive.A
participant_020,a,47,experiment,24,8,1,contrastive,y,8b,8a,8b,409.0,365.0,395.0,390.0,402.0,395.0,403.0,,1985.0,left,B,False,left,0.942,0.058,1523.0,1435.0,88.0,4.0,1.0,5.0,3.0,0.0,3.0,2.0,left,51.0,left,51.0,contrastive.B
participant_020,a,35,experiment,26,9,1,focus,y,9b,9a,,411.0,289.0,576.0,21.0,1232.0,474.0,951.0,,1939.0,right,A,False,right,0.306,0.694,919.3,281.0,638.3,3.0,4.0,7.0,2.0,3.0,5.0,4.0,right,123.0,right,282.0,focus.A
participant_020,a,45,experiment,28,10,1,exclusive,y,10b,10a,10a,550.0,414.0,464.0,414.0,416.0,410.0,443.0,,2207.0,right,A,False,right,0.0,1.0,1580.0,0.0,1580.0,0.0,4.0,4.0,0.0,3.0,3.0,0.0,right,135.0,right,1580.0,exclusive.A
participant_020,a,42,experiment,33,11,1,contrastive,n,11a,11b,11b,484.0,471.0,443.0,463.0,441.0,435.0,623.0,,1488.0,right,B,False,right,0.0,1.0,435.3,0.0,435.3,0.0,3.0,3.0,0.0,2.0,2.0,0.0,right,82.0,right,435.3,contrastive.B
participant_020,a,27,experiment,35,12,1,focus,n,12a,12b,,545.0,316.0,313.0,322.0,309.0,335.0,554.0,,1671.0,left,A,False,left,0.74,0.26,1094.0,810.0,284.0,4.0,3.0,7.0,3.0,2.0,5.0,2.0,left,94.0,left,94.0,focus.A
participant_020,a,38,experiment,37,13,1,exclusive,n,13a,13b,13a,475.0,353.0,325.0,591.0,490.0,493.0,630.0,,2297.0,left,A,False,left,0.596,0.404,1676.0,999.0,677.0,4.0,1.0,5.0,3.0,0.0,3.0,2.0,left,81.0,left,81.0,exclusive.A
participant_020,a,31,experiment,42,14,1,contrastive,y,14b,14a,14b,436.0,362.0,1127.0,464.0,408.0,861.0,895.0,,3260.0,left,B,False,left,0.593,0.407,2713.0,1608.0,1105.0,6.0,3.0,9.0,5.0,2.0,7.0,3.0,right,878.0,right,878.0,contrastive.B
participant_020,a,29,experiment,44,15,1,focus,y,15b,15a,,438.0,348.0,384.0,401.0,384.0,453.0,430.0,,1879.0,right,A,False,right,0.23,0.77,1588.0,365.0,1223.0,2.0,4.0,6.0,1.0,3.0,4.0,1.0,left,80.0,left,365.0,focus.A
participant_020,a,40,experiment,46,16,1,exclusive,y,16b,16a,16a,429.0,358.0,373.0,414.0,432.0,475.0,762.0,,1904.0,right,A,False,left,0.572,0.428,632.3,362.0,270.3,2.0,1.0,3.0,1.0,0.0,1.0,1.0,left,143.0,left,362.0,exclusive.A
participant_020,a,34,experiment,51,17,1,contrastive,n,17a,17b,17b,436.0,355.0,475.0,471.0,452.0,484.0,587.0,,5226.0,right,B,False,right,0.192,0.808,1625.6,312.0,1313.6,1.0,6.0,7.0,0.0,5.0,5.0,2.0,right,51.0,right,511.3,contrastive.B
participant_020,a,21,experiment,53,18,1,focus,n,18a,18b,,490.0,376.0,324.0,379.0,315.0,377.0,545.0,,1921.0,left,A,False,left,0.937,0.063,1549.0,1452.0,97.0,3.0,1.0,4.0,2.0,0.0,2.0,1.0,right,97.0,right,97.0,focus.A
participant_021,c,33,experiment,3,1,1,contrastive,n,1a,1b,1b,700.0,506.0,365.0,363.0,336.0,572.0,474.0,,757.0,left,A,True,left,1.0,0.0,725.0,725.0,0.0,1.0,0.0,1.0,0.0,0.0,0.0,0.0,left,725.0,left,725.0,contrastive.A
participant_021,c,36,experiment,5,2,1,focus,n,2a,2b,,326.0,523.0,360.0,409.0,329.0,547.0,383.0,,591.0,left,A,False,left,1.0,0.0,568.0,568.0,0.0,1.0,0.0,1.0,0.0,0.0,0.0,0.0,left,568.0,left,568.0,focus.A
participant_021,c,34,experiment,7,3,1,exclusive,n,3a,3b,3a,422.0,312.0,247.0,441.0,373.0,626.0,432.0,,750.0,left,A,False,left,0.908,0.092,652.0,592.0,60.0,2.0,1.0,3.0,1.0,0.0,1.0,2.0,left,168.0,left,168.0,exclusive.A
participant_021,c,47,experiment,12,4,1,contrastive,y,4b,4a,4b,397.0,263.0,324.0,283.0,415.0,312.0,471.0,,1137.0,right,A,True,right,0.0,1.0,354.3,0.0,354.3,0.0,2.0,2.0,0.0,1.0,1.0,0.0,right,84.0,right,354.3,contrastive.A
participant_021,c,27,experiment,14,5,1,focus,y,5b,5a,,590.0,353.0,272.0,360.0,267.0,311.0,518.0,,744.0,right,A,False,right,0.441,0.559,247.0,109.0,138.0,2.0,2.0,4.0,1.0,1.0,2.0,2.0,right,54.0,right,54.0,focus.A
participant_021,c,17,experiment,16,6,1,exclusive,y,6b,6a,6a,396.0,510.0,265.0,367.0,274.0,278.0,480.0,,719.0,right,A,False,right,0.0,1.0,505.0,0.0,505.0,0.0,2.0,2.0,0.0,1.0,1.0,0.0,right,76.0,right,505.0,exclusive.A
participant_021,c,49,experiment,21,7,1,contrastive,n,7a,7b,7b,371.0,231.0,349.0,268.0,334.0,265.0,318.0,,525.0,left,A,True,left,1.0,0.0,434.0,434.0,0.0,1.0,0.0,1.0,0.0,0.0,0.0,0.0,left,434.0,left,434.0,contrastive.A
participant_021,c,12,experiment,23,8,1,focus,n,8a,8b,,495.0,415.0,369.0,379.0,389.0,372.0,367.0,,944.0,left,A,False,left,1.0,0.0,670.0,670.0,0.0,1.0,0.0,1.0,0.0,0.0,0.0,0.0,left,670.0,left,670.0,focus.A
participant_021,c,40,experiment,25,9,1,exclusive,n,9a,9b,9a,510.0,295.0,440.0,335.0,360.0,802.0,330.0,,672.0,left,A,False,left,0.812,0.188,528.0,429.0,99.0,1.0,1.0,2.0,0.0,0.0,0.0,1.0,right,99.0,right,99.0,exclusive.A
participant_021,c,43,experiment,30,10,1,contrastive,y,10b,10a,10b,465.0,311.0,322.0,388.0,334.0,497.0,316.0,,737.0,right,A,True,right,0.0,1.0,687.0,0.0,687.0,0.0,1.0,1.0,0.0,0.0,0.0,0.0,right,687.0,right,687.0,contrastive.A
participant_021,c,22,experiment,32,11,1,focus,y,11b,11a,,580.0,283.0,351.0,394.0,376.0,563.0,445.0,,913.0,right,A,False,right,0.129,0.871,697.0,90.0,607.0,1.0,2.0,3.0,0.0,1.0,1.0,1.0,left,90.0,left,90.0,focus.A
participant_021,c,10,experiment,34,12,1,exclusive,y,12b,12a,12a,485.0,452.0,560.0,592.0,425.0,639.0,569.0,,780.0,right,A,False,right,0.465,0.535,635.0,295.0,340.0,1.0,1.0,2.0,0.0,0.0,0.0,1.0,left,295.0,left,295.0,exclusive.A
participant_021,c,20,experiment,39,13,1,contrastive,n,13a,13b,13b,421.0,334.0,280.0,504.0,385.0,472.0,756.0,,1448.0,left,A,True,right,0.396,0.604,1244.0,493.0,751.0,2.0,1.0,3.0,1.0,0.0,1.0,2.0,left,131.0,left,131.0,contrastive.A
participant_021,c,29,experiment,41,14,1,focus,n,14a,14b,,439.0,287.0,222.0,498.0,368.0,298.0,610.0,,2779.0,left,A,False,right,0.471,0.529,1818.3,856.3,962.0,3.0,5.0,8.0,2.0,4.0,6.0,4.0,left,94.0,left,94.0,focus.A
participant_021,c,15,experiment,43,15,1,exclusive,n,15a,15b,15a,493.0,351.0,398.0,392.0,304.0,617.0,374.0,,821.0,left,A,False,left,1.0,0.0,540.0,540.0,0.0,1.0,0.0,1.0,0.0,0.0,0.0,0.0,left,540.0,left,540.0,exclusive.A
participant_021,c,25,experiment,48,16,1,contrastive,y,16b,16a,16b,495.0,277.0,243.0,425.0,344.0,331.0,427.0,,3724.0,right,A,True,left,0.518,0.482,2101.3,1088.3,1013.0,3.0,2.0,5.0,2.0,1.0,3.0,3.0,left,120.0,left,818.0,contrastive.A
participant_021,c,24,experiment,50,17,1,focus,y,17b,17a,,329.0,246.0,479.0,556.0,409.0,466.0,471.0,,697.0,right,A,False,right,0.0,1.0,560.0,0.0,560.0,0.0,3.0,3.0,0.0,2.0,2.0,0.0,right,129.0,right,560.0,focus.A
participant_021,c,38,experiment,52,18,1,exclusive,y,18b,18a,18a,349.0,284.0,409.0,335.0,344.0,293.0,324.0,,753.0,right,A,False,right,0.285,0.715,628.0,179.0,449.0,1.0,1.0,2.0,0.0,0.0,0.0,1.0,left,179.0,left,179.0,exclusive.A
participant_022,a,36,experiment,1,1,1,exclusive,n,1a,1b,1a,559.0,532.0,556.0,696.0,584.0,756.0,906.0,,745.0,left,A,False,left,0.708,0.292,319.0,226.0,93.0,3.0,1.0,4.0,2.0,0.0,2.0,2.0,left,65.0,left,118.0,exclusive.A
participant_022,a,50,experiment,6,2,1,contrastive,y,2b,2a,2b,467.0,544.0,588.0,586.0,466.0,589.0,819.0,,1456.0,left,B,False,left,0.584,0.416,650.3,380.0,270.3,4.0,1.0,5.0,3.0,0.0,3.0,1.0,right,270.3,right,270.3,contrastive.B
participant_022,a,18,experiment,8,3,1,focus,y,3b,3a,,741.0,1083.0,963.0,1085.0,1014.0,1345.0,1202.0,,2035.0,right,A,False,right,0.368,0.632,1663.0,612.0,1051.0,1.0,5.0,6.0,0.0,4.0,4.0,1.0,right,671.0,right,1051.0,focus.A
participant_022,a,43,experiment,10,4,1,exclusive,y,4b,4a,4a,548.0,697.0,574.0,559.0,585.0,620.0,641.0,,1028.0,right,A,False,right,0.0,1.0,270.3,0.0,270.3,0.0,1.0,1.0,0.0,0.0,0.0,0.0,right,270.3,right,270.3,exclusive.A
participant_022,a,10,experiment,15,5,1,contrastive,n,5a,5b,5b,1239.0,947.0,1051.0,762.0,845.0,943.0,1159.0,,2306.0,left,A,True,right,0.309,0.691,1995.0,617.0,1378.0,3.0,4.0,7.0,2.0,3.0,5.0,3.0,right,88.0,right,564.0,contrastive.A
participant_022,a,13,experiment,17,6,1,focus,n,6a,6b,,636.0,745.0,770.0,780.0,787.0,949.0,1263.0,,1010.0,left,A,False,left,1.0,0.0,628.0,628.0,0.0,3.0,0.0,3.0,2.0,0.0,2.0,0.0,left,240.0,left,628.0,focus.A
participant_022,a,49,experiment,19,7,1,exclusive,n,7a,7b,7a,548.0,604.0,524.0,521.0,575.0,678.0,510.0,,831.0,left,A,False,left,0.767,0.233,618.0,474.0,144.0,1.0,1.0,2.0,0.0,0.0,0.0,1.0,right,144.0,right,144.0,exclusive.A
participant_022,a,47,experiment,24,8,1,contrastive,y,8b,8a,8b,540.0,578.0,557.0,596.0,520.0,700.0,652.0,,564.0,right,A,True,,,,1134.1947858472997,,,,,5.216014897579144,,,,2.0595903165735567,,226.12327746741155,,404.29422718808195,contrastive.A
participant_022,a,35,experiment,26,9,1,focus,y,9b,9a,,634.0,553.0,536.0,623.0,551.0,706.0,820.0,,989.0,right,A,False,right,0.188,0.812,817.0,154.0,663.0,1.0,2.0,3.0,0.0,1.0,1.0,1.0,left,154.0,left,154.0,focus.A
participant_022,a,45,experiment,28,10,1,exclusive,y,10b,10a,10a,653.0,578.0,593.0,603.0,508.0,715.0,677.0,,807.0,right,A,False,right,0.0,1.0,637.0,0.0,637.0,0.0,1.0,1.0,0.0,0.0,0.0,0.0,right,637.0,right,637.0,exclusive.A
participant_022,a,42,experiment,33,11,1,contrastive,n,11a,11b,11b,625.0,566.0,725.0,602.0,681.0,816.0,744.0,,995.0,left,A,True,left,0.742,0.258,815.0,605.0,210.0,4.0,1.0,5.0,3.0,0.0,3.0,1.0,right,210.0,right,210.0,contrastive.A
participant_022,a,27,experiment,35,12,1,focus,n,12a,12b,,533.0,667.0,551.0,765.0,786.0,894.0,866.0,,1193.0,left,A,False,left,0.727,0.273,396.0,288.0,108.0,2.0,2.0,4.0,1.0,1.0,2.0,1.0,right,52.0,right,108.0,focus.A
participant_022,a,38,experiment,37,13,1,exclusive,n,13a,13b,13a,621.0,587.0,542.0,606.0,658.0,648.0,864.0,,902.0,left,A,False,right,0.0,1.0,527.0,0.0,527.0,0.0,2.0,2.0,0.0,1.0,1.0,0.0,right,408.0,right,527.0,exclusive.A
participant_022,a,31,experiment,42,14,1,contrastive,y,14b,14a,14b,1126.0,595.0,682.0,695.0,629.0,841.0,871.0,,6493.0,right,A,True,left,0.567,0.433,4903.3,2778.0,2125.3,11.0,10.0,21.0,10.0,9.0,19.0,14.0,left,76.0,left,76.0,contrastive.A
participant_022,a,29,experiment,44,15,1,focus,y,15b,15a,,541.0,689.0,642.0,728.0,710.0,831.0,834.0,,649.0,right,A,False,right,0.0,1.0,109.0,0.0,109.0,0.0,2.0,2.0,0.0,1.0,1.0,0.0,right,52.0,right,109.0,focus.A
participant_022,a,40,experiment,46,16,1,exclusive,y,16b,16a,16a,645.0,570.0,532.0,625.0,652.0,628.0,744.0,,656.0,right,A,False,left,0.775,0.225,444.0,344.0,100.0,2.0,1.0,3.0,1.0,0.0,1.0,2.0,left,96.0,left,96.0,exclusive.A
participant_022,a,34,experiment,51,17,1,contrastive,n,17a,17b,17b,637.0,572.0,673.0,646.0,693.0,705.0,984.0,,823.0,left,A,True,left,0.519,0.481,572.0,297.0,275.0,2.0,2.0,4.0,1.0,1.0,2.0,2.0,left,56.0,left,56.0,contrastive.A
participant_022,a,21,experiment,53,18,1,focus,n,18a,18b,,650.0,681.0,1042.0,832.0,961.0,1063.0,1575.0,,5059.0,left,A,False,right,0.132,0.868,2540.3,336.3,2204.0,2.0,8.0,10.0,1.0,7.0,8.0,3.0,right,433.0,right,1019.0,focus.A
participant_023,b,34,experiment,2,1,1,focus,y,1b,1a,,823.0,904.0,465.0,503.0,429.0,526.0,470.0,,570.0,right,A,False,right,0.302,0.698,374.0,113.0,261.0,1.0,1.0,2.0,0.0,0.0,0.0,1.0,left,113.0,left,113.0,focus.A
participant_023,b,26,experiment,4,2,1,exclusive,y,2b,2a,2a,446.0,397.0,373.0,690.0,471.0,546.0,473.0,,617.0,right,A,False,right,0.0,1.0,306.0,0.0,306.0,0.0,2.0,2.0,0.0,1.0,1.0,0.0,right,133.0,right,306.0,exclusive.A
participant_023,b,49,experiment,9,3,1,contrastive,n,3a,3b,3b,525.0,383.0,452.0,380.0,334.0,492.0,365.0,,4065.0,right,B,False,right,0.0,1.0,860.0,0.0,860.0,0.0,2.0,2.0,0.0,1.0,1.0,0.0,right,56.0,right,860.0,contrastive.B
participant_023,b,25,experiment,11,4,1,focus,n,4a,4b,,522.0,650.0,398.0,456.0,447.0,489.0,506.0,,430.0,left,A,False,left,1.0,0.0,402.0,402.0,0.0,1.0,0.0,1.0,0.0,0.0,0.0,0.0,left,402.0,left,402.0,focus.A
participant_023,b,13,experiment,13,5,1,exclusive,n,5a,5b,5a,746.0,761.0,573.0,546.0,496.0,502.0,532.0,,2933.0,right,B,True,right,0.317,0.683,2136.3,677.0,1459.3,1.0,5.0,6.0,0.0,4.0,4.0,1.0,left,677.0,left,677.0,exclusive.B
participant_023,b,15,experiment,18,6,1,contrastive,y,6b,6a,6b,639.0,606.0,628.0,613.0,485.0,507.0,566.0,,2234.0,left,B,False,left,0.694,0.306,1526.0,1059.0,467.0,5.0,1.0,6.0,4.0,0.0,4.0,2.0,left,66.0,left,770.0,contrastive.B
participant_023,b,37,experiment,20,7,1,focus,y,7b,7a,,727.0,522.0,393.0,450.0,432.0,516.0,469.0,,595.0,right,A,False,right,0.176,0.824,392.0,69.0,323.0,1.0,1.0,2.0,0.0,0.0,0.0,1.0,left,69.0,left,69.0,focus.A
participant_023,b,17,experiment,22,8,1,exclusive,y,8b,8a,8a,571.0,556.0,431.0,436.0,442.0,477.0,499.0,,924.0,right,A,False,right,0.0,1.0,837.0,0.0,837.0,0.0,2.0,2.0,0.0,1.0,1.0,0.0,right,337.0,right,837.0,exclusive.A
participant_023,b,12,experiment,27,9,1,contrastive,n,9a,9b,9b,628.0,599.0,590.0,564.0,471.0,719.0,484.0,,2514.0,left,A,True,left,0.694,0.306,2237.0,1552.0,685.0,5.0,1.0,6.0,4.0,0.0,4.0,2.0,left,56.0,left,1482.0,contrastive.A
participant_023,b,21,experiment,29,10,1,focus,n,10a,10b,,463.0,523.0,442.0,423.0,410.0,595.0,1011.0,,830.0,left,A,False,left,1.0,0.0,793.0,793.0,0.0,2.0,0.0,2.0,1.0,0.0,1.0,0.0,left,170.0,left,793.0,focus.A
participant_023,b,39,experiment,31,11,1,exclusive,n,11a,11b,11a,665.0,437.0,403.0,492.0,507.0,447.0,1051.0,,542.0,left,A,False,left,1.0,0.0,515.0,515.0,0.0,1.0,0.0,1.0,0.0,0.0,0.0,0.0,left,515.0,left,515.0,exclusive.A
participant_023,b,41,experiment,36,12,1,contrastive,y,12b,12a,12b,1639.0,934.0,741.0,535.0,395.0,584.0,676.0,,1871.0,left,B,False,right,0.317,0.683,957.0,303.0,654.0,4.0,4.0,8.0,3.0,3.0,6.0,3.0,right,80.0,right,214.0,contrastive.B
participant_023,b,14,experiment,38,13,1,focus,y,13b,13a,,602.0,672.0,636.0,688.0,594.0,647.0,840.0,,5037.0,right,A,False,left,0.57,0.43,1985.6,1132.3,853.3,2.0,5.0,7.0,1.0,4.0,5.0,4.0,right,132.0,right,132.0,focus.A
participant_023,b,29,experiment,40,14,1,exclusive,y,14b,14a,14a,414.0,463.0,405.0,491.0,436.0,513.0,521.0,,7826.0,right,A,False,left,0.638,0.362,6007.0,3835.0,2172.0,15.0,16.0,31.0,14.0,15.0,29.0,14.0,right,68.0,right,296.0,exclusive.A
participant_023,b,46,experiment,45,15,1,contrastive,n,15a,15b,15b,419.0,456.0,420.0,456.0,369.0,362.0,408.0,,892.0,right,B,False,right,0.425,0.575,871.0,370.0,501.0,1.0,1.0,2.0,0.0,0.0,0.0,1.0,left,370.0,left,370.0,contrastive.B
participant_023,b,18,experiment,47,16,1,focus,n,16a,16b,,534.0,498.0,437.0,570.0,487.0,477.0,1942.0,,634.0,left,A,False,left,1.0,0.0,595.0,595.0,0.0,1.0,0.0,1.0,0.0,0.0,0.0,0.0,left,595.0,left,595.0,focus.A
participant_023,b,23,experiment,49,17,1,exclusive,n,17a,17b,17a,504.0,439.0,396.0,465.0,567.0,505.0,503.0,,629.0,left,A,False,left,1.0,0.0,601.0,601.0,0.0,1.0,0.0,1.0,0.0,0.0,0.0,0.0,left,601.0,left,601.0,exclusive.A
participant_023,b,43,experiment,54,18,1,contrastive,y,18b,18a,18b,802.0,683.0,723.0,533.0,380.0,407.0,423.0,,971.0,left,B,False,left,0.906,0.094,668.0,605.0,63.0,4.0,1.0,5.0,3.0,0.0,3.0,2.0,left,71.0,left,71.0,contrastive.B
participant_024,c,33,experiment,3,1,1,contrastive,n,1a,1b,1b,853.0,851.0,3717.0,5565.0,961.0,973.0,1211.0,,1811.0,left,A,True,right,0.269,0.731,1005.3,270.3,735.0,1.0,3.0,4.0,0.0,2.0,2.0,2.0,right,104.0,right,333.0,contrastive.A
participant_024,c,36,experiment,5,2,1,focus,n,2a,2b,,974.0,1560.0,834.0,828.0,716.0,870.0,1570.0,,2085.0,left,A,False,right,0.0,1.0,1111.3,0.0,1111.3,0.0,3.0,3.0,0.0,2.0,2.0,0.0,right,146.0,right,1111.3,focus.A
participant_024,c,34,experiment,7,3,1,exclusive,n,3a,3b,3a,1293.0,1635.0,1310.0,1568.0,1409.0,1273.0,1155.0,,1647.0,left,A,False,left,1.0,0.0,888.0,888.0,0.0,5.0,0.0,5.0,4.0,0.0,4.0,0.0,left,435.0,left,888.0,exclusive.A
participant_024,c,47,experiment,12,4,1,contrastive,y,4b,4a,4b,2037.0,1173.0,898.0,850.0,860.0,811.0,2745.0,,1202.0,right,A,True,right,0.367,0.633,559.0,205.0,354.0,1.0,2.0,3.0,0.0,1.0,1.0,1.0,left,205.0,left,205.0,contrastive.A
participant_024,c,27,experiment,14,5,1,focus,y,5b,5a,,634.0,939.0,506.0,592.0,538.0,772.0,704.0,,4605.0,right,A,False,left,0.724,0.276,2562.3,1856.3,706.0,9.0,4.0,13.0,8.0,3.0,11.0,2.0,left,190.0,left,1162.3,focus.A
participant_024,c,17,experiment,16,6,1,exclusive,y,6b,6a,6a,838.0,832.0,1039.0,824.0,728.0,936.0,1446.0,,1703.0,right,A,False,right,0.074,0.926,1102.0,82.0,1020.0,1.0,5.0,6.0,0.0,4.0,4.0,1.0,left,82.0,left,82.0,exclusive.A
participant_024,c,49,experiment,21,7,1,contrastive,n,7a,7b,7b,1055.0,714.0,804.0,1107.0,617.0,1162.0,1029.0,,1427.0,left,A,True,left,1.0,0.0,596.0,596.0,0.0,3.0,0.0,3.0,2.0,0.0,2.0,0.0,left,182.0,left,596.0,contrastive.A
participant_024,c,12,experiment,23,8,1,focus,n,8a,8b,,1002.0,958.0,716.0,1122.0,651.0,690.0,780.0,,2444.0,left,A,False,left,0.627,0.373,1330.0,834.0,496.0,9.0,4.0,13.0,8.0,3.0,11.0,6.0,left,80.0,left,300.0,focus.A
participant_024,c,40,experiment,25,9,1,exclusive,n,9a,9b,9a,1018.0,987.0,800.0,784.0,692.0,737.0,967.0,,1521.0,left,A,False,left,0.725,0.275,965.0,700.0,265.0,6.0,3.0,9.0,5.0,2.0,7.0,6.0,left,103.0,left,103.0,exclusive.A
participant_024,c,43,experiment,30,10,1,contrastive,y,10b,10a,10b,1632.0,856.0,1143.0,987.0,942.0,1089.0,1543.0,,1778.0,right,A,True,right,0.0,1.0,557.3,0.0,557.3,0.0,4.0,4.0,0.0,3.0,3.0,0.0,right,62.0,right,557.3,contrastive.A
participant_024,c,22,experiment,32,11,1,focus,y,11b,11a,,1201.0,1415.0,614.0,989.0,795.0,960.0,1051.0,,1978.0,right,A,False,right,0.336,0.664,873.0,293.0,580.0,3.0,5.0,8.0,2.0,4.0,6.0,1.0,left,101.0,left,293.0,focus.A
participant_024,c,10,experiment,34,12,1,exclusive,y,12b,12a,12a,1034.0,1280.0,1028.0,858.0,693.0,1178.0,1009.0,,2992.0,right,A,False,right,0.0,1.0,919.3,0.0,919.3,0.0,6.0,6.0,0.0,5.0,5.0,0.0,right,59.0,right,919.3,exclusive.A
participant_024,c,20,experiment,39,13,1,contrastive,n,13a,13b,13b,1105.0,1051.0,1055.0,1175.0,929.0,1022.0,1042.0,,2619.0,left,A,True,left,0.784,0.216,1326.0,1039.0,287.0,7.0,3.0,10.0,6.0,2.0,8.0,2.0,left,371.0,left,904.0,contrastive.A
participant_024,c,29,experiment,41,14,1,focus,n,14a,14b,,632.0,673.0,644.0,822.0,694.0,651.0,987.0,,4995.0,right,B,False,left,0.603,0.397,2589.0,1561.0,1028.0,6.0,8.0,14.0,5.0,7.0,12.0,6.0,right,122.0,right,122.0,focus.B
participant_024,c,15,experiment,43,15,1,exclusive,n,15a,15b,15a,1089.0,1008.0,1171.0,1131.0,940.0,1068.0,1225.0,,3750.0,left,A,False,right,0.478,0.522,2593.0,1240.0,1353.0,9.0,7.0,16.0,8.0,6.0,14.0,7.0,right,226.0,right,428.0,exclusive.A
participant_024,c,25,experiment,48,16,1,contrastive,y,16b,16a,16b,605.0,730.0,622.0,606.0,554.0,736.0,1002.0,,1760.0,right,A,True,left,0.939,0.061,1337.0,1255.0,82.0,3.0,1.0,4.0,2.0,0.0,2.0,2.0,left,785.0,left,785.0,contrastive.A
participant_024,c,24,experiment,50,17,1,focus,y,17b,17a,,892.0,826.0,728.0,1225.0,880.0,816.0,2495.0,,1852.0,right,A,False,right,0.0,1.0,1453.0,0.0,1453.0,0.0,7.0,7.0,0.0,6.0,6.0,0.0,right,66.0,right,1453.0,focus.A
participant_024,c,38,experiment,52,18,1,exclusive,y,18b,18a,18a,1040.0,1060.0,845.0,965.0,930.0,937.0,1121.0,,2579.0,right,A,False,right,0.034,0.966,1816.0,62.0,1754.0,1.0,8.0,9.0,0.0,7.0,7.0,2.0,right,65.0,right,1544.0,exclusive.A
participant_025,c,33,experiment,3,1,1,contrastive,n,1a,1b,1b,614.0,426.0,449.0,501.0,667.0,449.0,412.0,,1234.0,right,B,False,right,0.0,1.0,1055.0,0.0,1055.0,0.0,3.0,3.0,0.0,2.0,2.0,0.0,right,165.0,right,1055.0,contrastive.B
participant_025,c,36,experiment,5,2,1,focus,n,2a,2b,,553.0,596.0,1006.0,832.0,482.0,1251.0,585.0,,780.0,left,A,False,left,1.0,0.0,761.0,761.0,0.0,1.0,0.0,1.0,0.0,0.0,0.0,0.0,left,761.0,left,761.0,focus.A
participant_025,c,34,experiment,7,3,1,exclusive,n,3a,3b,3a,655.0,544.0,420.0,534.0,452.0,567.0,469.0,,985.0,left,A,False,left,1.0,0.0,793.0,793.0,0.0,3.0,0.0,3.0,2.0,0.0,2.0,0.0,left,66.0,left,793.0,exclusive.A
participant_025,c,47,experiment,12,4,1,contrastive,y,4b,4a,4b,538.0,534.0,801.0,638.0,484.0,772.0,762.0,,1214.0,left,B,False,left,0.904,0.096,726.0,656.0,70.0,3.0,1.0,4.0,2.0,0.0,2.0,1.0,left,325.0,left,656.0,contrastive.B
participant_025,c,27,experiment,14,5,1,focus,y,5b,5a,,568.0,585.0,444.0,987.0,477.0,432.0,452.0,,1184.0,right,A,False,right,0.0,1.0,270.3,0.0,270.3,0.0,1.0,1.0,0.0,0.0,0.0,0.0,right,270.3,right,270.3,focus.A
participant_025,c,17,experiment,16,6,1,exclusive,y,6b,6a,6a,596.0,582.0,447.0,462.0,482.0,646.0,514.0,,1536.0,right,A,False,right,0.339,0.661,1074.0,364.0,710.0,2.0,4.0,6.0,1.0,3.0,4.0,1.0,left,199.0,left,364.0,exclusive.A
participant_025,c,49,experiment,21,7,1,contrastive,n,7a,7b,7b,583.0,438.0,473.0,513.0,421.0,584.0,432.0,,872.0,right,B,False,right,0.0,1.0,782.0,0.0,782.0,0.0,3.0,3.0,0.0,2.0,2.0,0.0,right,342.0,right,782.0,contrastive.B
participant_025,c,12,experiment,23,8,1,focus,n,8a,8b,,465.0,472.0,419.0,376.0,464.0,469.0,417.0,,782.0,left,A,False,left,1.0,0.0,468.0,468.0,0.0,3.0,0.0,3.0,2.0,0.0,2.0,0.0,left,177.0,left,468.0,focus.A
participant_025,c,40,experiment,25,9,1,exclusive,n,9a,9b,9a,1093.0,680.0,408.0,611.0,470.0,576.0,494.0,,1182.0,left,A,False,left,1.0,0.0,270.3,270.3,0.0,1.0,0.0,1.0,0.0,0.0,0.0,0.0,left,270.3,left,270.3,exclusive.A
participant_025,c,43,experiment,30,10,1,contrastive,y,10b,10a,10b,449.0,526.0,615.0,623.0,474.0,468.0,494.0,,1087.0,left,B,False,left,1.0,0.0,797.0,797.0,0.0,4.0,0.0,4.0,3.0,0.0,3.0,0.0,left,98.0,left,797.0,contrastive.B
participant_025,c,22,experiment,32,11,1,focus,y,11b,11a,,539.0,515.0,435.0,396.0,465.0,893.0,673.0,,856.0,right,A,False,left,0.884,0.116,621.0,549.0,72.0,4.0,1.0,5.0,3.0,0.0,3.0,2.0,left,135.0,left,204.0,focus.A
participant_025,c,10,experiment,34,12,1,exclusive,y,12b,12a,12a,639.0,1776.0,642.0,774.0,732.0,973.0,830.0,,600.0,right,A,False,right,0.0,1.0,416.0,0.0,416.0,0.0,3.0,3.0,0.0,2.0,2.0,0.0,right,136.0,right,416.0,exclusive.A
participant_025,c,20,experiment,39,13,1,contrastive,n,13a,13b,13b,745.0,710.0,803.0,1027.0,869.0,1042.0,828.0,,807.0,right,B,False,left,0.629,0.371,272.0,171.0,101.0,2.0,1.0,3.0,1.0,0.0,1.0,1.0,left,103.0,left,171.0,contrastive.B
participant_025,c,29,experiment,41,14,1,focus,n,14a,14b,,484.0,390.0,370.0,534.0,459.0,578.0,641.0,,2969.0,left,A,False,right,0.478,0.522,2287.0,1093.0,1194.0,6.0,4.0,10.0,5.0,3.0,8.0,3.0,right,143.0,right,627.0,focus.A
participant_025,c,15,experiment,43,15,1,exclusive,n,15a,15b,15a,931.0,1031.0,512.0,652.0,522.0,704.0,640.0,,861.0,left,A,False,left,1.0,0.0,732.0,732.0,0.0,2.0,0.0,2.0,1.0,0.0,1.0,0.0,left,166.0,left,732.0,exclusive.A
participant_025,c,25,experiment,48,16,1,contrastive,y,16b,16a,16b,643.0,459.0,483.0,503.0,453.0,371.0,375.0,,1030.0,left,B,False,left,1.0,0.0,988.0,988.0,0.0,2.0,0.0,2.0,1.0,0.0,1.0,0.0,left,857.0,left,988.0,contrastive.B
participant_025,c,24,experiment,50,17,1,focus,y,17b,17a,,591.0,1434.0,1310.0,1520.0,841.0,867.0,1443.0,,1163.0,right,A,False,right,0.101,0.899,972.0,98.0,874.0,1.0,1.0,2.0,0.0,0.0,0.0,1.0,left,98.0,left,98.0,focus.A
participant_025,c,38,experiment,52,18,1,exclusive,y,18b,18a,18a,524.0,972.0,1020.0,582.0,422.0,481.0,774.0,,1056.0,right,A,False,right,0.355,0.645,973.0,345.0,628.0,1.0,2.0,3.0,0.0,1.0,1.0,1.0,left,345.0,left,345.0,exclusive.A
participant_026,b,34,experiment,2,1,1,focus,y,1b,1a,,477.0,505.0,375.0,371.0,499.0,558.0,564.0,,11860.0,right,A,False,right,0.473,0.527,9155.0,4333.0,4822.0,31.0,30.0,61.0,30.0,29.0,59.0,39.0,left,583.0,left,641.0,focus.A
participant_026,b,26,experiment,4,2,1,exclusive,y,2b,2a,2a,491.0,409.0,324.0,432.0,568.0,758.0,373.0,,1845.0,right,A,False,right,0.323,0.677,1426.0,461.0,965.0,5.0,7.0,12.0,4.0,6.0,10.0,8.0,right,59.0,right,120.0,exclusive.A
participant_026,b,49,experiment,9,3,1,contrastive,n,3a,3b,3b,563.0,357.0,352.0,408.0,385.0,816.0,1336.0,,2407.0,right,B,False,left,0.628,0.372,2145.0,1346.0,799.0,8.0,5.0,13.0,7.0,4.0,11.0,9.0,left,249.0,left,872.0,contrastive.B
participant_026,b,25,experiment,11,4,1,focus,n,4a,4b,,387.0,485.0,388.0,394.0,282.0,409.0,383.0,,2636.0,left,A,False,left,0.597,0.403,2332.0,1392.0,940.0,7.0,6.0,13.0,6.0,5.0,11.0,8.0,left,181.0,left,181.0,focus.A
