#
# Results on Mon, 22 Sep 2025 16:33:59 GMT
# USER AGENT: Mozilla/5.0 (Windows NT 10.0; Win64; x64) AppleWebKit/537.36 (KHTML, like Gecko) Chrome/140.0.0.0 Safari/537.36
# Design number was non-random = 0
#
# Columns below this comment are as follows:
# 1. Results reception time.
# 2. MD5 hash of participant's IP address.
# 3. Controller name.
# 4. Order number of item.
# 5. Inner element number.
# 6. Label.
# 7. Latin Square Group.
# 8. PennElementType.
# 9. PennElementName.
# 10. Parameter.
# 11. Value.
# 12. EventTime.
# 13. prolific_id.
# 14. Comments.
1758558839,5ea96059c7f8c9bb71d4ecdb67ea496e,PennController,0,0,welcome,NULL,PennController,0,_Trial_,Start,1758556961557,prolific_id,NULL
1758558839,5ea96059c7f8c9bb71d4ecdb67ea496e,PennController,0,0,welcome,NULL,PennController,0,_Header_,Start,1758556961557,prolific_id,NULL
1758558839,5ea96059c7f8c9bb71d4ecdb67ea496e,PennController,0,0,welcome,NULL,PennController,0,_Header_,End,1758556961557,prolific_id,NULL
1758558839,5ea96059c7f8c9bb71d4ecdb67ea496e,PennController,0,0,welcome,NULL,Html,consent_form,,checked,1758557006048,prolific_id,checkbox
1758558839,5ea96059c7f8c9bb71d4ecdb67ea496e,PennController,0,0,welcome,NULL,PennController,0,_Trial_,End,1758557006048,prolific_id,NULL
# 14. participant_id.
# 15. Comments.
1758558839,5ea96059c7f8c9bb71d4ecdb67ea496e,PennController,4,0,participant_data,NULL,PennController,3,_Trial_,Start,1758557006052,prolific_id,60d26e7cd9f0761e4d12b9f8,NULL
1758558839,5ea96059c7f8c9bb71d4ecdb67ea496e,PennController,4,0,participant_data,NULL,PennController,3,_Header_,Start,1758557006052,prolific_id,60d26e7cd9f0761e4d12b9f8,NULL
1758558839,5ea96059c7f8c9bb71d4ecdb67ea496e,PennController,4,0,participant_data,NULL,PennController,3,_Header_,End,1758557006052,prolific_id,60d26e7cd9f0761e4d12b9f8,NULL
1758558839,5ea96059c7f8c9bb71d4ecdb67ea496e,PennController,4,0,participant_data,NULL,TextInput,input_participant_id,EnterReturn,60d26e7cd9f0761e4d12b9f8,1758557009027,prolific_id,60d26e7cd9f0761e4d12b9f8,NULL
1758558839,5ea96059c7f8c9bb71d4ecdb67ea496e,PennController,4,0,participant_data,NULL,TextInput,input_participant_id,Final,60d26e7cd9f0761e4d12b9f8,1758557012338,prolific_id,60d26e7cd9f0761e4d12b9f8,NULL
1758558839,5ea96059c7f8c9bb71d4ecdb67ea496e,PennController,4,0,participant_data,NULL,TextInput,input_participant_id,First,,1758557007965,prolific_id,60d26e7cd9f0761e4d12b9f8,Control
1758558839,5ea96059c7f8c9bb71d4ecdb67ea496e,PennController,4,0,participant_data,NULL,PennController,3,_Trial_,End,1758557012338,prolific_id,60d26e7cd9f0761e4d12b9f8,NULL
# 14. Comments.
1758558839,5ea96059c7f8c9bb71d4ecdb67ea496e,PennController,1,0,calibration,NULL,PennController,1,_Trial_,Start,1758557012339,prolific_id,NULL
1758558839,5ea96059c7f8c9bb71d4ecdb67ea496e,PennController,1,0,calibration,NULL,PennController,1,_Header_,Start,1758557012339,prolific_id,NULL
1758558839,5ea96059c7f8c9bb71d4ecdb67ea496e,PennController,1,0,calibration,NULL,PennController,1,_Header_,End,1758557012339,prolific_id,NULL
1758558839,5ea96059c7f8c9bb71d4ecdb67ea496e,PennController,1,0,calibration,NULL,EyeTracker,tracker,calibration,89,1758557059812,prolific_id,NULL
1758558839,5ea96059c7f8c9bb71d4ecdb67ea496e,PennController,1,0,calibration,NULL,PennController,1,_Trial_,End,1758557067182,prolific_id,NULL
1758558839,5ea96059c7f8c9bb71d4ecdb67ea496e,PennController,3,0,check_preloaded,NULL,PennController,2,_Trial_,Start,1758557067184,prolific_id,NULL
1758558839,5ea96059c7f8c9bb71d4ecdb67ea496e,PennController,3,0,check_preloaded,NULL,PennController,2,_Header_,Start,1758557067184,prolific_id,NULL
1758558839,5ea96059c7f8c9bb71d4ecdb67ea496e,PennController,3,0,check_preloaded,NULL,PennController,2,_Header_,End,1758557067184,prolific_id,NULL
1758558839,5ea96059c7f8c9bb71d4ecdb67ea496e,PennController,3,0,check_preloaded,NULL,PennController,2,_Trial_,End,1758557068208,prolific_id,NULL
1758558839,5ea96059c7f8c9bb71d4ecdb67ea496e,PennController,5,0,instructions,NULL,PennController,4,_Trial_,Start,1758557068209,prolific_id,NULL
1758558839,5ea96059c7f8c9bb71d4ecdb67ea496e,PennController,5,0,instructions,NULL,PennController,4,_Header_,Start,1758557068209,prolific_id,NULL
1758558839,5ea96059c7f8c9bb71d4ecdb67ea496e,PennController,5,0,instructions,NULL,PennController,4,_Header_,End,1758557068209,prolific_id,NULL
1758558839,5ea96059c7f8c9bb71d4ecdb67ea496e,PennController,5,0,instructions,NULL,PennController,4,_Trial_,End,1758557095439,prolific_id,NULL
# 14. participant_id.
# 15. group.
# 16. no.
# 17. item.
# 18. exp.
# 19. condition.
# 20. counterbalancing.
# 21. left.
# 22. right.
# 23. target.
# 24. participant_id.
# 25. Comments.
1758558839,5ea96059c7f8c9bb71d4ecdb67ea496e,PennController,6,0,practice,NULL,PennController,9,_Trial_,Start,1758557095442,prolific_id,60d26e7cd9f0761e4d12b9f8,,990,1,,practice,n,A,B,A,participant_id,NULL
1758558839,5ea96059c7f8c9bb71d4ecdb67ea496e,PennController,6,0,practice,NULL,PennController,9,_Header_,Start,1758557095442,prolific_id,60d26e7cd9f0761e4d12b9f8,,990,1,,practice,n,A,B,A,participant_id,NULL
1758558839,5ea96059c7f8c9bb71d4ecdb67ea496e,PennController,6,0,practice,NULL,PennController,9,_Header_,End,1758557095442,prolific_id,60d26e7cd9f0761e4d12b9f8,,990,1,,practice,n,A,B,A,participant_id,NULL
1758558839,5ea96059c7f8c9bb71d4ecdb67ea496e,PennController,6,0,practice,NULL,EyeTracker,tracker,calibration,68,1758557100501,prolific_id,60d26e7cd9f0761e4d12b9f8,,990,1,,practice,n,A,B,A,participant_id,NULL
1758558839,5ea96059c7f8c9bb71d4ecdb67ea496e,PennController,6,0,practice,NULL,EyeTracker,tracker,Filename,httpsfarmpcibexnetpzCPVqO/e48687db-1afc-905a-9709-fabcc6e4dfe4,1758557126157,prolific_id,60d26e7cd9f0761e4d12b9f8,,990,1,,practice,n,A,B,A,participant_id,NULL
1758558839,5ea96059c7f8c9bb71d4ecdb67ea496e,PennController,6,0,practice,NULL,Canvas,right_canvas,Print,NA,1758557123552,prolific_id,60d26e7cd9f0761e4d12b9f8,,990,1,,practice,n,A,B,A,participant_id,NULL
1758558839,5ea96059c7f8c9bb71d4ecdb67ea496e,PennController,6,0,practice,NULL,Key,r0,PressedKey, ,1758557108205,prolific_id,60d26e7cd9f0761e4d12b9f8,,990,1,,practice,n,A,B,A,participant_id,Wait success
1758558839,5ea96059c7f8c9bb71d4ecdb67ea496e,PennController,6,0,practice,NULL,Key,r1,PressedKey, ,1758557110936,prolific_id,60d26e7cd9f0761e4d12b9f8,,990,1,,practice,n,A,B,A,participant_id,Wait success
1758558839,5ea96059c7f8c9bb71d4ecdb67ea496e,PennController,6,0,practice,NULL,Key,r2,PressedKey, ,1758557112758,prolific_id,60d26e7cd9f0761e4d12b9f8,,990,1,,practice,n,A,B,A,participant_id,Wait success
1758558839,5ea96059c7f8c9bb71d4ecdb67ea496e,PennController,6,0,practice,NULL,Key,r3,PressedKey, ,1758557114509,prolific_id,60d26e7cd9f0761e4d12b9f8,,990,1,,practice,n,A,B,A,participant_id,Wait success
1758558839,5ea96059c7f8c9bb71d4ecdb67ea496e,PennController,6,0,practice,NULL,Key,r4,PressedKey, ,1758557116391,prolific_id,60d26e7cd9f0761e4d12b9f8,,990,1,,practice,n,A,B,A,participant_id,Wait success
1758558839,5ea96059c7f8c9bb71d4ecdb67ea496e,PennController,6,0,practice,NULL,Key,r5,PressedKey, ,1758557117839,prolific_id,60d26e7cd9f0761e4d12b9f8,,990,1,,practice,n,A,B,A,participant_id,Wait success
1758558839,5ea96059c7f8c9bb71d4ecdb67ea496e,PennController,6,0,practice,NULL,Key,r6,PressedKey, ,1758557119149,prolific_id,60d26e7cd9f0761e4d12b9f8,,990,1,,practice,n,A,B,A,participant_id,Wait success
1758558839,5ea96059c7f8c9bb71d4ecdb67ea496e,PennController,6,0,practice,NULL,Key,r7,PressedKey, ,1758557120524,prolific_id,60d26e7cd9f0761e4d12b9f8,,990,1,,practice,n,A,B,A,participant_id,Wait success
1758558839,5ea96059c7f8c9bb71d4ecdb67ea496e,PennController,6,0,practice,NULL,Selector,choice_selector,Selection,left_canvas,1758557126156,prolific_id,60d26e7cd9f0761e4d12b9f8,,990,1,,practice,n,A,B,A,participant_id,left_canvas;right_canvas
1758558839,5ea96059c7f8c9bb71d4ecdb67ea496e,PennController,6,0,practice,NULL,PennController,9,_Trial_,End,1758557126159,prolific_id,60d26e7cd9f0761e4d12b9f8,,990,1,,practice,n,A,B,A,participant_id,NULL
1758558839,5ea96059c7f8c9bb71d4ecdb67ea496e,PennController,7,0,practice,NULL,PennController,10,_Trial_,Start,1758557126162,prolific_id,60d26e7cd9f0761e4d12b9f8,,991,2,,practice,y,D,C,C,participant_id,NULL
1758558839,5ea96059c7f8c9bb71d4ecdb67ea496e,PennController,7,0,practice,NULL,PennController,10,_Header_,Start,1758557126162,prolific_id,60d26e7cd9f0761e4d12b9f8,,991,2,,practice,y,D,C,C,participant_id,NULL
1758558839,5ea96059c7f8c9bb71d4ecdb67ea496e,PennController,7,0,practice,NULL,PennController,10,_Header_,End,1758557126162,prolific_id,60d26e7cd9f0761e4d12b9f8,,991,2,,practice,y,D,C,C,participant_id,NULL
1758558839,5ea96059c7f8c9bb71d4ecdb67ea496e,PennController,7,0,practice,NULL,EyeTracker,tracker,calibration,61,1758557131213,prolific_id,60d26e7cd9f0761e4d12b9f8,,991,2,,practice,y,D,C,C,participant_id,NULL
1758558839,5ea96059c7f8c9bb71d4ecdb67ea496e,PennController,7,0,practice,NULL,EyeTracker,tracker,Filename,httpsfarmpcibexnetpzCPVqO/e48687db-1afc-905a-9709-fabcc6e4dfe4,1758557148057,prolific_id,60d26e7cd9f0761e4d12b9f8,,991,2,,practice,y,D,C,C,participant_id,NULL
1758558839,5ea96059c7f8c9bb71d4ecdb67ea496e,PennController,7,0,practice,NULL,Canvas,right_canvas,Print,NA,1758557146553,prolific_id,60d26e7cd9f0761e4d12b9f8,,991,2,,practice,y,D,C,C,participant_id,NULL
1758558839,5ea96059c7f8c9bb71d4ecdb67ea496e,PennController,7,0,practice,NULL,Key,r0,PressedKey, ,1758557137216,prolific_id,60d26e7cd9f0761e4d12b9f8,,991,2,,practice,y,D,C,C,participant_id,Wait success
1758558839,5ea96059c7f8c9bb71d4ecdb67ea496e,PennController,7,0,practice,NULL,Key,r1,PressedKey, ,1758557138366,prolific_id,60d26e7cd9f0761e4d12b9f8,,991,2,,practice,y,D,C,C,participant_id,Wait success
1758558839,5ea96059c7f8c9bb71d4ecdb67ea496e,PennController,7,0,practice,NULL,Key,r2,PressedKey, ,1758557139275,prolific_id,60d26e7cd9f0761e4d12b9f8,,991,2,,practice,y,D,C,C,participant_id,Wait success
1758558839,5ea96059c7f8c9bb71d4ecdb67ea496e,PennController,7,0,practice,NULL,Key,r3,PressedKey, ,1758557140204,prolific_id,60d26e7cd9f0761e4d12b9f8,,991,2,,practice,y,D,C,C,participant_id,Wait success
1758558839,5ea96059c7f8c9bb71d4ecdb67ea496e,PennController,7,0,practice,NULL,Key,r4,PressedKey, ,1758557140982,prolific_id,60d26e7cd9f0761e4d12b9f8,,991,2,,practice,y,D,C,C,participant_id,Wait success
1758558839,5ea96059c7f8c9bb71d4ecdb67ea496e,PennController,7,0,practice,NULL,Key,r5,PressedKey, ,1758557141775,prolific_id,60d26e7cd9f0761e4d12b9f8,,991,2,,practice,y,D,C,C,participant_id,Wait success
1758558839,5ea96059c7f8c9bb71d4ecdb67ea496e,PennController,7,0,practice,NULL,Key,r6,PressedKey, ,1758557142740,prolific_id,60d26e7cd9f0761e4d12b9f8,,991,2,,practice,y,D,C,C,participant_id,Wait success
1758558839,5ea96059c7f8c9bb71d4ecdb67ea496e,PennController,7,0,practice,NULL,Key,r7,PressedKey, ,1758557143510,prolific_id,60d26e7cd9f0761e4d12b9f8,,991,2,,practice,y,D,C,C,participant_id,Wait success
1758558839,5ea96059c7f8c9bb71d4ecdb67ea496e,PennController,7,0,practice,NULL,Selector,choice_selector,Selection,right_canvas,1758557148056,prolific_id,60d26e7cd9f0761e4d12b9f8,,991,2,,practice,y,D,C,C,participant_id,left_canvas;right_canvas
1758558839,5ea96059c7f8c9bb71d4ecdb67ea496e,PennController,7,0,practice,NULL,PennController,10,_Trial_,End,1758557148058,prolific_id,60d26e7cd9f0761e4d12b9f8,,991,2,,practice,y,D,C,C,participant_id,NULL
1758558839,5ea96059c7f8c9bb71d4ecdb67ea496e,PennController,8,0,practice,NULL,PennController,11,_Trial_,Start,1758557148060,prolific_id,60d26e7cd9f0761e4d12b9f8,,992,3,,practice,n,E,F,E,participant_id,NULL
1758558839,5ea96059c7f8c9bb71d4ecdb67ea496e,PennController,8,0,practice,NULL,PennController,11,_Header_,Start,1758557148060,prolific_id,60d26e7cd9f0761e4d12b9f8,,992,3,,practice,n,E,F,E,participant_id,NULL
1758558839,5ea96059c7f8c9bb71d4ecdb67ea496e,PennController,8,0,practice,NULL,PennController,11,_Header_,End,1758557148060,prolific_id,60d26e7cd9f0761e4d12b9f8,,992,3,,practice,n,E,F,E,participant_id,NULL
1758558839,5ea96059c7f8c9bb71d4ecdb67ea496e,PennController,8,0,practice,NULL,EyeTracker,tracker,calibration,83,1758557153113,prolific_id,60d26e7cd9f0761e4d12b9f8,,992,3,,practice,n,E,F,E,participant_id,NULL
1758558839,5ea96059c7f8c9bb71d4ecdb67ea496e,PennController,8,0,practice,NULL,EyeTracker,tracker,Filename,httpsfarmpcibexnetpzCPVqO/e48687db-1afc-905a-9709-fabcc6e4dfe4,1758557175217,prolific_id,60d26e7cd9f0761e4d12b9f8,,992,3,,practice,n,E,F,E,participant_id,NULL
1758558839,5ea96059c7f8c9bb71d4ecdb67ea496e,PennController,8,0,practice,NULL,Canvas,right_canvas,Print,NA,1758557173387,prolific_id,60d26e7cd9f0761e4d12b9f8,,992,3,,practice,n,E,F,E,participant_id,NULL
1758558839,5ea96059c7f8c9bb71d4ecdb67ea496e,PennController,8,0,practice,NULL,Key,r0,PressedKey, ,1758557158343,prolific_id,60d26e7cd9f0761e4d12b9f8,,992,3,,practice,n,E,F,E,participant_id,Wait success
1758558839,5ea96059c7f8c9bb71d4ecdb67ea496e,PennController,8,0,practice,NULL,Key,r1,PressedKey, ,1758557159280,prolific_id,60d26e7cd9f0761e4d12b9f8,,992,3,,practice,n,E,F,E,participant_id,Wait success
1758558839,5ea96059c7f8c9bb71d4ecdb67ea496e,PennController,8,0,practice,NULL,Key,r2,PressedKey, ,1758557160136,prolific_id,60d26e7cd9f0761e4d12b9f8,,992,3,,practice,n,E,F,E,participant_id,Wait success
1758558839,5ea96059c7f8c9bb71d4ecdb67ea496e,PennController,8,0,practice,NULL,Key,r3,PressedKey, ,1758557160945,prolific_id,60d26e7cd9f0761e4d12b9f8,,992,3,,practice,n,E,F,E,participant_id,Wait success
1758558839,5ea96059c7f8c9bb71d4ecdb67ea496e,PennController,8,0,practice,NULL,Key,r4,PressedKey, ,1758557161880,prolific_id,60d26e7cd9f0761e4d12b9f8,,992,3,,practice,n,E,F,E,participant_id,Wait success
1758558839,5ea96059c7f8c9bb71d4ecdb67ea496e,PennController,8,0,practice,NULL,Key,r5,PressedKey, ,1758557162777,prolific_id,60d26e7cd9f0761e4d12b9f8,,992,3,,practice,n,E,F,E,participant_id,Wait success
1758558839,5ea96059c7f8c9bb71d4ecdb67ea496e,PennController,8,0,practice,NULL,Key,r6,PressedKey, ,1758557163661,prolific_id,60d26e7cd9f0761e4d12b9f8,,992,3,,practice,n,E,F,E,participant_id,Wait success
1758558839,5ea96059c7f8c9bb71d4ecdb67ea496e,PennController,8,0,practice,NULL,Key,r7,PressedKey, ,1758557164606,prolific_id,60d26e7cd9f0761e4d12b9f8,,992,3,,practice,n,E,F,E,participant_id,Wait success
1758558839,5ea96059c7f8c9bb71d4ecdb67ea496e,PennController,8,0,practice,NULL,Key,question,PressedKey, ,1758557170348,prolific_id,60d26e7cd9f0761e4d12b9f8,,992,3,,practice,n,E,F,E,participant_id,Wait success
1758558839,5ea96059c7f8c9bb71d4ecdb67ea496e,PennController,8,0,practice,NULL,Selector,choice_selector,Selection,left_canvas,1758557175215,prolific_id,60d26e7cd9f0761e4d12b9f8,,992,3,,practice,n,E,F,E,participant_id,left_canvas;right_canvas
1758558839,5ea96059c7f8c9bb71d4ecdb67ea496e,PennController,8,0,practice,NULL,PennController,11,_Trial_,End,1758557175218,prolific_id,60d26e7cd9f0761e4d12b9f8,,992,3,,practice,n,E,F,E,participant_id,NULL
# 14. Comments.
1758558839,5ea96059c7f8c9bb71d4ecdb67ea496e,PennController,9,0,start,NULL,PennController,5,_Trial_,Start,1758557175221,prolific_id,NULL
1758558839,5ea96059c7f8c9bb71d4ecdb67ea496e,PennController,9,0,start,NULL,PennController,5,_Header_,Start,1758557175221,prolific_id,NULL
1758558839,5ea96059c7f8c9bb71d4ecdb67ea496e,PennController,9,0,start,NULL,PennController,5,_Header_,End,1758557175221,prolific_id,NULL
1758558839,5ea96059c7f8c9bb71d4ecdb67ea496e,PennController,9,0,start,NULL,PennController,5,_Trial_,End,1758557178135,prolific_id,NULL
# 14. participant_id.
# 15. group.
# 16. no.
# 17. item.
# 18. exp.
# 19. condition.
# 20. counterbalancing.
# 21. left.
# 22. right.
# 23. target.
# 24. participant_id.
# 25. Comments.
1758558839,5ea96059c7f8c9bb71d4ecdb67ea496e,PennController,10,0,experiment,NULL,PennController,12,_Trial_,Start,1758557178136,prolific_id,60d26e7cd9f0761e4d12b9f8,a,15,5,1,contrastive,n,5a,5b,5b,participant_id,NULL
1758558839,5ea96059c7f8c9bb71d4ecdb67ea496e,PennController,10,0,experiment,NULL,PennController,12,_Header_,Start,1758557178136,prolific_id,60d26e7cd9f0761e4d12b9f8,a,15,5,1,contrastive,n,5a,5b,5b,participant_id,NULL
1758558839,5ea96059c7f8c9bb71d4ecdb67ea496e,PennController,10,0,experiment,NULL,PennController,12,_Header_,End,1758557178136,prolific_id,60d26e7cd9f0761e4d12b9f8,a,15,5,1,contrastive,n,5a,5b,5b,participant_id,NULL
1758558839,5ea96059c7f8c9bb71d4ecdb67ea496e,PennController,10,0,experiment,NULL,EyeTracker,tracker,calibration,57,1758557182154,prolific_id,60d26e7cd9f0761e4d12b9f8,a,15,5,1,contrastive,n,5a,5b,5b,participant_id,NULL
1758558839,5ea96059c7f8c9bb71d4ecdb67ea496e,PennController,10,0,experiment,NULL,EyeTracker,tracker,calibration,53,1758557241724,prolific_id,60d26e7cd9f0761e4d12b9f8,a,15,5,1,contrastive,n,5a,5b,5b,participant_id,Last attempt
1758558839,5ea96059c7f8c9bb71d4ecdb67ea496e,PennController,10,0,experiment,NULL,EyeTracker,tracker,Filename,httpsfarmpcibexnetpzCPVqO/e48687db-1afc-905a-9709-fabcc6e4dfe4,1758557268840,prolific_id,60d26e7cd9f0761e4d12b9f8,a,15,5,1,contrastive,n,5a,5b,5b,participant_id,NULL
1758558839,5ea96059c7f8c9bb71d4ecdb67ea496e,PennController,10,0,experiment,NULL,Canvas,right_canvas,Print,NA,1758557267780,prolific_id,60d26e7cd9f0761e4d12b9f8,a,15,5,1,contrastive,n,5a,5b,5b,participant_id,NULL
1758558839,5ea96059c7f8c9bb71d4ecdb67ea496e,PennController,10,0,experiment,NULL,Key,r0,PressedKey, ,1758557258760,prolific_id,60d26e7cd9f0761e4d12b9f8,a,15,5,1,contrastive,n,5a,5b,5b,participant_id,Wait success
1758558839,5ea96059c7f8c9bb71d4ecdb67ea496e,PennController,10,0,experiment,NULL,Key,r1,PressedKey, ,1758557259837,prolific_id,60d26e7cd9f0761e4d12b9f8,a,15,5,1,contrastive,n,5a,5b,5b,participant_id,Wait success
1758558839,5ea96059c7f8c9bb71d4ecdb67ea496e,PennController,10,0,experiment,NULL,Key,r2,PressedKey, ,1758557260621,prolific_id,60d26e7cd9f0761e4d12b9f8,a,15,5,1,contrastive,n,5a,5b,5b,participant_id,Wait success
1758558839,5ea96059c7f8c9bb71d4ecdb67ea496e,PennController,10,0,experiment,NULL,Key,r3,PressedKey, ,1758557261357,prolific_id,60d26e7cd9f0761e4d12b9f8,a,15,5,1,contrastive,n,5a,5b,5b,participant_id,Wait success
1758558839,5ea96059c7f8c9bb71d4ecdb67ea496e,PennController,10,0,experiment,NULL,Key,r4,PressedKey, ,1758557262278,prolific_id,60d26e7cd9f0761e4d12b9f8,a,15,5,1,contrastive,n,5a,5b,5b,participant_id,Wait success
1758558839,5ea96059c7f8c9bb71d4ecdb67ea496e,PennController,10,0,experiment,NULL,Key,r5,PressedKey, ,1758557263154,prolific_id,60d26e7cd9f0761e4d12b9f8,a,15,5,1,contrastive,n,5a,5b,5b,participant_id,Wait success
1758558839,5ea96059c7f8c9bb71d4ecdb67ea496e,PennController,10,0,experiment,NULL,Key,r6,PressedKey, ,1758557263909,prolific_id,60d26e7cd9f0761e4d12b9f8,a,15,5,1,contrastive,n,5a,5b,5b,participant_id,Wait success
1758558839,5ea96059c7f8c9bb71d4ecdb67ea496e,PennController,10,0,experiment,NULL,Key,r7,PressedKey, ,1758557264756,prolific_id,60d26e7cd9f0761e4d12b9f8,a,15,5,1,contrastive,n,5a,5b,5b,participant_id,Wait success
1758558839,5ea96059c7f8c9bb71d4ecdb67ea496e,PennController,10,0,experiment,NULL,Selector,choice_selector,Selection,right_canvas,1758557268839,prolific_id,60d26e7cd9f0761e4d12b9f8,a,15,5,1,contrastive,n,5a,5b,5b,participant_id,left_canvas;right_canvas
1758558839,5ea96059c7f8c9bb71d4ecdb67ea496e,PennController,10,0,experiment,NULL,PennController,12,_Trial_,End,1758557268842,prolific_id,60d26e7cd9f0761e4d12b9f8,a,15,5,1,contrastive,n,5a,5b,5b,participant_id,NULL
1758558839,5ea96059c7f8c9bb71d4ecdb67ea496e,PennController,11,0,experiment,NULL,PennController,13,_Trial_,Start,1758557268844,prolific_id,60d26e7cd9f0761e4d12b9f8,a,94,28,2,other-directed-x,y,Mária,Julcsi,Julcsi,participant_id,NULL
1758558839,5ea96059c7f8c9bb71d4ecdb67ea496e,PennController,11,0,experiment,NULL,PennController,13,_Header_,Start,1758557268844,prolific_id,60d26e7cd9f0761e4d12b9f8,a,94,28,2,other-directed-x,y,Mária,Julcsi,Julcsi,participant_id,NULL
1758558839,5ea96059c7f8c9bb71d4ecdb67ea496e,PennController,11,0,experiment,NULL,PennController,13,_Header_,End,1758557268844,prolific_id,60d26e7cd9f0761e4d12b9f8,a,94,28,2,other-directed-x,y,Mária,Julcsi,Julcsi,participant_id,NULL
1758558839,5ea96059c7f8c9bb71d4ecdb67ea496e,PennController,11,0,experiment,NULL,EyeTracker,tracker,calibration,70,1758557272879,prolific_id,60d26e7cd9f0761e4d12b9f8,a,94,28,2,other-directed-x,y,Mária,Julcsi,Julcsi,participant_id,NULL
1758558839,5ea96059c7f8c9bb71d4ecdb67ea496e,PennController,11,0,experiment,NULL,EyeTracker,tracker,Filename,httpsfarmpcibexnetpzCPVqO/e48687db-1afc-905a-9709-fabcc6e4dfe4,1758557291370,prolific_id,60d26e7cd9f0761e4d12b9f8,a,94,28,2,other-directed-x,y,Mária,Julcsi,Julcsi,participant_id,NULL
1758558839,5ea96059c7f8c9bb71d4ecdb67ea496e,PennController,11,0,experiment,NULL,Canvas,right_canvas,Print,NA,1758557287799,prolific_id,60d26e7cd9f0761e4d12b9f8,a,94,28,2,other-directed-x,y,Mária,Julcsi,Julcsi,participant_id,NULL
1758558839,5ea96059c7f8c9bb71d4ecdb67ea496e,PennController,11,0,experiment,NULL,Key,r0,PressedKey, ,1758557279405,prolific_id,60d26e7cd9f0761e4d12b9f8,a,94,28,2,other-directed-x,y,Mária,Julcsi,Julcsi,participant_id,Wait success
1758558839,5ea96059c7f8c9bb71d4ecdb67ea496e,PennController,11,0,experiment,NULL,Key,r1,PressedKey, ,1758557280235,prolific_id,60d26e7cd9f0761e4d12b9f8,a,94,28,2,other-directed-x,y,Mária,Julcsi,Julcsi,participant_id,Wait success
1758558839,5ea96059c7f8c9bb71d4ecdb67ea496e,PennController,11,0,experiment,NULL,Key,r2,PressedKey, ,1758557281088,prolific_id,60d26e7cd9f0761e4d12b9f8,a,94,28,2,other-directed-x,y,Mária,Julcsi,Julcsi,participant_id,Wait success
1758558839,5ea96059c7f8c9bb71d4ecdb67ea496e,PennController,11,0,experiment,NULL,Key,r3,PressedKey, ,1758557281866,prolific_id,60d26e7cd9f0761e4d12b9f8,a,94,28,2,other-directed-x,y,Mária,Julcsi,Julcsi,participant_id,Wait success
1758558839,5ea96059c7f8c9bb71d4ecdb67ea496e,PennController,11,0,experiment,NULL,Key,r4,PressedKey, ,1758557283181,prolific_id,60d26e7cd9f0761e4d12b9f8,a,94,28,2,other-directed-x,y,Mária,Julcsi,Julcsi,participant_id,Wait success
1758558839,5ea96059c7f8c9bb71d4ecdb67ea496e,PennController,11,0,experiment,NULL,Key,r5,PressedKey, ,1758557284034,prolific_id,60d26e7cd9f0761e4d12b9f8,a,94,28,2,other-directed-x,y,Mária,Julcsi,Julcsi,participant_id,Wait success
1758558839,5ea96059c7f8c9bb71d4ecdb67ea496e,PennController,11,0,experiment,NULL,Key,r7,PressedKey, ,1758557284752,prolific_id,60d26e7cd9f0761e4d12b9f8,a,94,28,2,other-directed-x,y,Mária,Julcsi,Julcsi,participant_id,Wait success
1758558839,5ea96059c7f8c9bb71d4ecdb67ea496e,PennController,11,0,experiment,NULL,Key,question,PressedKey, ,1758557285773,prolific_id,60d26e7cd9f0761e4d12b9f8,a,94,28,2,other-directed-x,y,Mária,Julcsi,Julcsi,participant_id,Wait success
1758558839,5ea96059c7f8c9bb71d4ecdb67ea496e,PennController,11,0,experiment,NULL,Selector,choice_selector,Selection,right_canvas,1758557291367,prolific_id,60d26e7cd9f0761e4d12b9f8,a,94,28,2,other-directed-x,y,Mária,Julcsi,Julcsi,participant_id,left_canvas;right_canvas
1758558839,5ea96059c7f8c9bb71d4ecdb67ea496e,PennController,11,0,experiment,NULL,PennController,13,_Trial_,End,1758557291371,prolific_id,60d26e7cd9f0761e4d12b9f8,a,94,28,2,other-directed-x,y,Mária,Julcsi,Julcsi,participant_id,NULL
1758558839,5ea96059c7f8c9bb71d4ecdb67ea496e,PennController,12,0,experiment,NULL,PennController,14,_Trial_,Start,1758557291373,prolific_id,60d26e7cd9f0761e4d12b9f8,a,76,24,2,other-directed,y,mérnök,építész,építész,participant_id,NULL
1758558839,5ea96059c7f8c9bb71d4ecdb67ea496e,PennController,12,0,experiment,NULL,PennController,14,_Header_,Start,1758557291373,prolific_id,60d26e7cd9f0761e4d12b9f8,a,76,24,2,other-directed,y,mérnök,építész,építész,participant_id,NULL
1758558839,5ea96059c7f8c9bb71d4ecdb67ea496e,PennController,12,0,experiment,NULL,PennController,14,_Header_,End,1758557291373,prolific_id,60d26e7cd9f0761e4d12b9f8,a,76,24,2,other-directed,y,mérnök,építész,építész,participant_id,NULL
1758558839,5ea96059c7f8c9bb71d4ecdb67ea496e,PennController,12,0,experiment,NULL,EyeTracker,tracker,calibration,59,1758557295416,prolific_id,60d26e7cd9f0761e4d12b9f8,a,76,24,2,other-directed,y,mérnök,építész,építész,participant_id,NULL
1758558839,5ea96059c7f8c9bb71d4ecdb67ea496e,PennController,12,0,experiment,NULL,EyeTracker,tracker,calibration,72,1758557337480,prolific_id,60d26e7cd9f0761e4d12b9f8,a,76,24,2,other-directed,y,mérnök,építész,építész,participant_id,Last attempt
1758558839,5ea96059c7f8c9bb71d4ecdb67ea496e,PennController,12,0,experiment,NULL,EyeTracker,tracker,Filename,httpsfarmpcibexnetpzCPVqO/e48687db-1afc-905a-9709-fabcc6e4dfe4,1758557356826,prolific_id,60d26e7cd9f0761e4d12b9f8,a,76,24,2,other-directed,y,mérnök,építész,építész,participant_id,NULL
1758558839,5ea96059c7f8c9bb71d4ecdb67ea496e,PennController,12,0,experiment,NULL,Canvas,right_canvas,Print,NA,1758557355719,prolific_id,60d26e7cd9f0761e4d12b9f8,a,76,24,2,other-directed,y,mérnök,építész,építész,participant_id,NULL
1758558839,5ea96059c7f8c9bb71d4ecdb67ea496e,PennController,12,0,experiment,NULL,Key,r0,PressedKey, ,1758557344618,prolific_id,60d26e7cd9f0761e4d12b9f8,a,76,24,2,other-directed,y,mérnök,építész,építész,participant_id,Wait success
1758558839,5ea96059c7f8c9bb71d4ecdb67ea496e,PennController,12,0,experiment,NULL,Key,r1,PressedKey, ,1758557345766,prolific_id,60d26e7cd9f0761e4d12b9f8,a,76,24,2,other-directed,y,mérnök,építész,építész,participant_id,Wait success
1758558839,5ea96059c7f8c9bb71d4ecdb67ea496e,PennController,12,0,experiment,NULL,Key,r2,PressedKey, ,1758557346753,prolific_id,60d26e7cd9f0761e4d12b9f8,a,76,24,2,other-directed,y,mérnök,építész,építész,participant_id,Wait success
1758558839,5ea96059c7f8c9bb71d4ecdb67ea496e,PennController,12,0,experiment,NULL,Key,r3,PressedKey, ,1758557347462,prolific_id,60d26e7cd9f0761e4d12b9f8,a,76,24,2,other-directed,y,mérnök,építész,építész,participant_id,Wait success
1758558839,5ea96059c7f8c9bb71d4ecdb67ea496e,PennController,12,0,experiment,NULL,Key,r4,PressedKey, ,1758557348235,prolific_id,60d26e7cd9f0761e4d12b9f8,a,76,24,2,other-directed,y,mérnök,építész,építész,participant_id,Wait success
1758558839,5ea96059c7f8c9bb71d4ecdb67ea496e,PennController,12,0,experiment,NULL,Key,r5,PressedKey, ,1758557349141,prolific_id,60d26e7cd9f0761e4d12b9f8,a,76,24,2,other-directed,y,mérnök,építész,építész,participant_id,Wait success
1758558839,5ea96059c7f8c9bb71d4ecdb67ea496e,PennController,12,0,experiment,NULL,Key,r7,PressedKey, ,1758557350171,prolific_id,60d26e7cd9f0761e4d12b9f8,a,76,24,2,other-directed,y,mérnök,építész,építész,participant_id,Wait success
1758558839,5ea96059c7f8c9bb71d4ecdb67ea496e,PennController,12,0,experiment,NULL,Key,question,PressedKey, ,1758557353712,prolific_id,60d26e7cd9f0761e4d12b9f8,a,76,24,2,other-directed,y,mérnök,építész,építész,participant_id,Wait success
1758558839,5ea96059c7f8c9bb71d4ecdb67ea496e,PennController,12,0,experiment,NULL,Selector,choice_selector,Selection,left_canvas,1758557356825,prolific_id,60d26e7cd9f0761e4d12b9f8,a,76,24,2,other-directed,y,mérnök,építész,építész,participant_id,left_canvas;right_canvas
1758558839,5ea96059c7f8c9bb71d4ecdb67ea496e,PennController,12,0,experiment,NULL,PennController,14,_Trial_,End,1758557356828,prolific_id,60d26e7cd9f0761e4d12b9f8,a,76,24,2,other-directed,y,mérnök,építész,építész,participant_id,NULL
1758558839,5ea96059c7f8c9bb71d4ecdb67ea496e,PennController,13,0,experiment,NULL,PennController,15,_Trial_,Start,1758557356830,prolific_id,60d26e7cd9f0761e4d12b9f8,a,17,6,1,focus,n,6a,6b,,participant_id,NULL
1758558839,5ea96059c7f8c9bb71d4ecdb67ea496e,PennController,13,0,experiment,NULL,PennController,15,_Header_,Start,1758557356830,prolific_id,60d26e7cd9f0761e4d12b9f8,a,17,6,1,focus,n,6a,6b,,participant_id,NULL
1758558839,5ea96059c7f8c9bb71d4ecdb67ea496e,PennController,13,0,experiment,NULL,PennController,15,_Header_,End,1758557356830,prolific_id,60d26e7cd9f0761e4d12b9f8,a,17,6,1,focus,n,6a,6b,,participant_id,NULL
1758558839,5ea96059c7f8c9bb71d4ecdb67ea496e,PennController,13,0,experiment,NULL,EyeTracker,tracker,calibration,66,1758557360852,prolific_id,60d26e7cd9f0761e4d12b9f8,a,17,6,1,focus,n,6a,6b,,participant_id,NULL
1758558839,5ea96059c7f8c9bb71d4ecdb67ea496e,PennController,13,0,experiment,NULL,EyeTracker,tracker,Filename,httpsfarmpcibexnetpzCPVqO/e48687db-1afc-905a-9709-fabcc6e4dfe4,1758557377158,prolific_id,60d26e7cd9f0761e4d12b9f8,a,17,6,1,focus,n,6a,6b,,participant_id,NULL
1758558839,5ea96059c7f8c9bb71d4ecdb67ea496e,PennController,13,0,experiment,NULL,Canvas,right_canvas,Print,NA,1758557376344,prolific_id,60d26e7cd9f0761e4d12b9f8,a,17,6,1,focus,n,6a,6b,,participant_id,NULL
1758558839,5ea96059c7f8c9bb71d4ecdb67ea496e,PennController,13,0,experiment,NULL,Key,r0,PressedKey, ,1758557368381,prolific_id,60d26e7cd9f0761e4d12b9f8,a,17,6,1,focus,n,6a,6b,,participant_id,Wait success
1758558839,5ea96059c7f8c9bb71d4ecdb67ea496e,PennController,13,0,experiment,NULL,Key,r1,PressedKey, ,1758557369035,prolific_id,60d26e7cd9f0761e4d12b9f8,a,17,6,1,focus,n,6a,6b,,participant_id,Wait success
1758558839,5ea96059c7f8c9bb71d4ecdb67ea496e,PennController,13,0,experiment,NULL,Key,r2,PressedKey, ,1758557369898,prolific_id,60d26e7cd9f0761e4d12b9f8,a,17,6,1,focus,n,6a,6b,,participant_id,Wait success
1758558839,5ea96059c7f8c9bb71d4ecdb67ea496e,PennController,13,0,experiment,NULL,Key,r3,PressedKey, ,1758557370632,prolific_id,60d26e7cd9f0761e4d12b9f8,a,17,6,1,focus,n,6a,6b,,participant_id,Wait success
1758558839,5ea96059c7f8c9bb71d4ecdb67ea496e,PennController,13,0,experiment,NULL,Key,r4,PressedKey, ,1758557371332,prolific_id,60d26e7cd9f0761e4d12b9f8,a,17,6,1,focus,n,6a,6b,,participant_id,Wait success
1758558839,5ea96059c7f8c9bb71d4ecdb67ea496e,PennController,13,0,experiment,NULL,Key,r5,PressedKey, ,1758557371945,prolific_id,60d26e7cd9f0761e4d12b9f8,a,17,6,1,focus,n,6a,6b,,participant_id,Wait success
1758558839,5ea96059c7f8c9bb71d4ecdb67ea496e,PennController,13,0,experiment,NULL,Key,r6,PressedKey, ,1758557372652,prolific_id,60d26e7cd9f0761e4d12b9f8,a,17,6,1,focus,n,6a,6b,,participant_id,Wait success
1758558839,5ea96059c7f8c9bb71d4ecdb67ea496e,PennController,13,0,experiment,NULL,Key,r7,PressedKey, ,1758557373308,prolific_id,60d26e7cd9f0761e4d12b9f8,a,17,6,1,focus,n,6a,6b,,participant_id,Wait success
1758558839,5ea96059c7f8c9bb71d4ecdb67ea496e,PennController,13,0,experiment,NULL,Selector,choice_selector,Selection,left_canvas,1758557377157,prolific_id,60d26e7cd9f0761e4d12b9f8,a,17,6,1,focus,n,6a,6b,,participant_id,left_canvas;right_canvas
1758558839,5ea96059c7f8c9bb71d4ecdb67ea496e,PennController,13,0,experiment,NULL,PennController,15,_Trial_,End,1758557377159,prolific_id,60d26e7cd9f0761e4d12b9f8,a,17,6,1,focus,n,6a,6b,,participant_id,NULL
1758558839,5ea96059c7f8c9bb71d4ecdb67ea496e,PennController,14,0,experiment,NULL,PennController,16,_Trial_,Start,1758557377161,prolific_id,60d26e7cd9f0761e4d12b9f8,a,91,28,2,self-directed,n,Mária,Julcsi,Julcsi,participant_id,NULL
1758558839,5ea96059c7f8c9bb71d4ecdb67ea496e,PennController,14,0,experiment,NULL,PennController,16,_Header_,Start,1758557377161,prolific_id,60d26e7cd9f0761e4d12b9f8,a,91,28,2,self-directed,n,Mária,Julcsi,Julcsi,participant_id,NULL
1758558839,5ea96059c7f8c9bb71d4ecdb67ea496e,PennController,14,0,experiment,NULL,PennController,16,_Header_,End,1758557377161,prolific_id,60d26e7cd9f0761e4d12b9f8,a,91,28,2,self-directed,n,Mária,Julcsi,Julcsi,participant_id,NULL
1758558839,5ea96059c7f8c9bb71d4ecdb67ea496e,PennController,14,0,experiment,NULL,EyeTracker,tracker,calibration,60,1758557381185,prolific_id,60d26e7cd9f0761e4d12b9f8,a,91,28,2,self-directed,n,Mária,Julcsi,Julcsi,participant_id,NULL
1758558839,5ea96059c7f8c9bb71d4ecdb67ea496e,PennController,14,0,experiment,NULL,EyeTracker,tracker,Filename,httpsfarmpcibexnetpzCPVqO/e48687db-1afc-905a-9709-fabcc6e4dfe4,1758557400151,prolific_id,60d26e7cd9f0761e4d12b9f8,a,91,28,2,self-directed,n,Mária,Julcsi,Julcsi,participant_id,NULL
1758558839,5ea96059c7f8c9bb71d4ecdb67ea496e,PennController,14,0,experiment,NULL,Canvas,right_canvas,Print,NA,1758557399073,prolific_id,60d26e7cd9f0761e4d12b9f8,a,91,28,2,self-directed,n,Mária,Julcsi,Julcsi,participant_id,NULL
1758558839,5ea96059c7f8c9bb71d4ecdb67ea496e,PennController,14,0,experiment,NULL,Key,r0,PressedKey, ,1758557387216,prolific_id,60d26e7cd9f0761e4d12b9f8,a,91,28,2,self-directed,n,Mária,Julcsi,Julcsi,participant_id,Wait success
1758558839,5ea96059c7f8c9bb71d4ecdb67ea496e,PennController,14,0,experiment,NULL,Key,r1,PressedKey, ,1758557387907,prolific_id,60d26e7cd9f0761e4d12b9f8,a,91,28,2,self-directed,n,Mária,Julcsi,Julcsi,participant_id,Wait success
1758558839,5ea96059c7f8c9bb71d4ecdb67ea496e,PennController,14,0,experiment,NULL,Key,r2,PressedKey, ,1758557388501,prolific_id,60d26e7cd9f0761e4d12b9f8,a,91,28,2,self-directed,n,Mária,Julcsi,Julcsi,participant_id,Wait success
1758558839,5ea96059c7f8c9bb71d4ecdb67ea496e,PennController,14,0,experiment,NULL,Key,r3,PressedKey, ,1758557389291,prolific_id,60d26e7cd9f0761e4d12b9f8,a,91,28,2,self-directed,n,Mária,Julcsi,Julcsi,participant_id,Wait success
1758558839,5ea96059c7f8c9bb71d4ecdb67ea496e,PennController,14,0,experiment,NULL,Key,r4,PressedKey, ,1758557390110,prolific_id,60d26e7cd9f0761e4d12b9f8,a,91,28,2,self-directed,n,Mária,Julcsi,Julcsi,participant_id,Wait success
1758558839,5ea96059c7f8c9bb71d4ecdb67ea496e,PennController,14,0,experiment,NULL,Key,r5,PressedKey, ,1758557390658,prolific_id,60d26e7cd9f0761e4d12b9f8,a,91,28,2,self-directed,n,Mária,Julcsi,Julcsi,participant_id,Wait success
1758558839,5ea96059c7f8c9bb71d4ecdb67ea496e,PennController,14,0,experiment,NULL,Key,r7,PressedKey, ,1758557391435,prolific_id,60d26e7cd9f0761e4d12b9f8,a,91,28,2,self-directed,n,Mária,Julcsi,Julcsi,participant_id,Wait success
1758558839,5ea96059c7f8c9bb71d4ecdb67ea496e,PennController,14,0,experiment,NULL,Key,question,PressedKey, ,1758557397045,prolific_id,60d26e7cd9f0761e4d12b9f8,a,91,28,2,self-directed,n,Mária,Julcsi,Julcsi,participant_id,Wait success
1758558839,5ea96059c7f8c9bb71d4ecdb67ea496e,PennController,14,0,experiment,NULL,Selector,choice_selector,Selection,left_canvas,1758557400149,prolific_id,60d26e7cd9f0761e4d12b9f8,a,91,28,2,self-directed,n,Mária,Julcsi,Julcsi,participant_id,left_canvas;right_canvas
1758558839,5ea96059c7f8c9bb71d4ecdb67ea496e,PennController,14,0,experiment,NULL,PennController,16,_Trial_,End,1758557400152,prolific_id,60d26e7cd9f0761e4d12b9f8,a,91,28,2,self-directed,n,Mária,Julcsi,Julcsi,participant_id,NULL
1758558839,5ea96059c7f8c9bb71d4ecdb67ea496e,PennController,15,0,experiment,NULL,PennController,17,_Trial_,Start,1758557400154,prolific_id,60d26e7cd9f0761e4d12b9f8,a,106,31,2,self-directed-x,y,művész,üzletember,üzletember,participant_id,NULL
1758558839,5ea96059c7f8c9bb71d4ecdb67ea496e,PennController,15,0,experiment,NULL,PennController,17,_Header_,Start,1758557400154,prolific_id,60d26e7cd9f0761e4d12b9f8,a,106,31,2,self-directed-x,y,művész,üzletember,üzletember,participant_id,NULL
1758558839,5ea96059c7f8c9bb71d4ecdb67ea496e,PennController,15,0,experiment,NULL,PennController,17,_Header_,End,1758557400154,prolific_id,60d26e7cd9f0761e4d12b9f8,a,106,31,2,self-directed-x,y,művész,üzletember,üzletember,participant_id,NULL
1758558839,5ea96059c7f8c9bb71d4ecdb67ea496e,PennController,15,0,experiment,NULL,EyeTracker,tracker,calibration,51,1758557404186,prolific_id,60d26e7cd9f0761e4d12b9f8,a,106,31,2,self-directed-x,y,művész,üzletember,üzletember,participant_id,NULL
1758558839,5ea96059c7f8c9bb71d4ecdb67ea496e,PennController,15,0,experiment,NULL,EyeTracker,tracker,calibration,45,1758557451686,prolific_id,60d26e7cd9f0761e4d12b9f8,a,106,31,2,self-directed-x,y,művész,üzletember,üzletember,participant_id,Last attempt
1758558839,5ea96059c7f8c9bb71d4ecdb67ea496e,PennController,15,0,experiment,NULL,EyeTracker,tracker,Filename,httpsfarmpcibexnetpzCPVqO/e48687db-1afc-905a-9709-fabcc6e4dfe4,1758557469603,prolific_id,60d26e7cd9f0761e4d12b9f8,a,106,31,2,self-directed-x,y,művész,üzletember,üzletember,participant_id,NULL
1758558839,5ea96059c7f8c9bb71d4ecdb67ea496e,PennController,15,0,experiment,NULL,Canvas,right_canvas,Print,NA,1758557468735,prolific_id,60d26e7cd9f0761e4d12b9f8,a,106,31,2,self-directed-x,y,művész,üzletember,üzletember,participant_id,NULL
1758558839,5ea96059c7f8c9bb71d4ecdb67ea496e,PennController,15,0,experiment,NULL,Key,r0,PressedKey, ,1758557460470,prolific_id,60d26e7cd9f0761e4d12b9f8,a,106,31,2,self-directed-x,y,művész,üzletember,üzletember,participant_id,Wait success
1758558839,5ea96059c7f8c9bb71d4ecdb67ea496e,PennController,15,0,experiment,NULL,Key,r1,PressedKey, ,1758557461267,prolific_id,60d26e7cd9f0761e4d12b9f8,a,106,31,2,self-directed-x,y,művész,üzletember,üzletember,participant_id,Wait success
1758558839,5ea96059c7f8c9bb71d4ecdb67ea496e,PennController,15,0,experiment,NULL,Key,r2,PressedKey, ,1758557462066,prolific_id,60d26e7cd9f0761e4d12b9f8,a,106,31,2,self-directed-x,y,művész,üzletember,üzletember,participant_id,Wait success
1758558839,5ea96059c7f8c9bb71d4ecdb67ea496e,PennController,15,0,experiment,NULL,Key,r3,PressedKey, ,1758557462776,prolific_id,60d26e7cd9f0761e4d12b9f8,a,106,31,2,self-directed-x,y,művész,üzletember,üzletember,participant_id,Wait success
1758558839,5ea96059c7f8c9bb71d4ecdb67ea496e,PennController,15,0,experiment,NULL,Key,r4,PressedKey, ,1758557463326,prolific_id,60d26e7cd9f0761e4d12b9f8,a,106,31,2,self-directed-x,y,művész,üzletember,üzletember,participant_id,Wait success
1758558839,5ea96059c7f8c9bb71d4ecdb67ea496e,PennController,15,0,experiment,NULL,Key,r5,PressedKey, ,1758557464062,prolific_id,60d26e7cd9f0761e4d12b9f8,a,106,31,2,self-directed-x,y,művész,üzletember,üzletember,participant_id,Wait success
1758558839,5ea96059c7f8c9bb71d4ecdb67ea496e,PennController,15,0,experiment,NULL,Key,r7,PressedKey, ,1758557464680,prolific_id,60d26e7cd9f0761e4d12b9f8,a,106,31,2,self-directed-x,y,művész,üzletember,üzletember,participant_id,Wait success
1758558839,5ea96059c7f8c9bb71d4ecdb67ea496e,PennController,15,0,experiment,NULL,Key,question,PressedKey, ,1758557466713,prolific_id,60d26e7cd9f0761e4d12b9f8,a,106,31,2,self-directed-x,y,művész,üzletember,üzletember,participant_id,Wait success
1758558839,5ea96059c7f8c9bb71d4ecdb67ea496e,PennController,15,0,experiment,NULL,Selector,choice_selector,Selection,right_canvas,1758557469602,prolific_id,60d26e7cd9f0761e4d12b9f8,a,106,31,2,self-directed-x,y,művész,üzletember,üzletember,participant_id,left_canvas;right_canvas
1758558839,5ea96059c7f8c9bb71d4ecdb67ea496e,PennController,15,0,experiment,NULL,PennController,17,_Trial_,End,1758557469604,prolific_id,60d26e7cd9f0761e4d12b9f8,a,106,31,2,self-directed-x,y,művész,üzletember,üzletember,participant_id,NULL
1758558839,5ea96059c7f8c9bb71d4ecdb67ea496e,PennController,16,0,experiment,NULL,PennController,18,_Trial_,Start,1758557469609,prolific_id,60d26e7cd9f0761e4d12b9f8,a,103,31,2,other-directed-x,n,művész,üzletember,üzletember,participant_id,NULL
1758558839,5ea96059c7f8c9bb71d4ecdb67ea496e,PennController,16,0,experiment,NULL,PennController,18,_Header_,Start,1758557469609,prolific_id,60d26e7cd9f0761e4d12b9f8,a,103,31,2,other-directed-x,n,művész,üzletember,üzletember,participant_id,NULL
1758558839,5ea96059c7f8c9bb71d4ecdb67ea496e,PennController,16,0,experiment,NULL,PennController,18,_Header_,End,1758557469609,prolific_id,60d26e7cd9f0761e4d12b9f8,a,103,31,2,other-directed-x,n,művész,üzletember,üzletember,participant_id,NULL
1758558839,5ea96059c7f8c9bb71d4ecdb67ea496e,PennController,16,0,experiment,NULL,EyeTracker,tracker,calibration,62,1758557473639,prolific_id,60d26e7cd9f0761e4d12b9f8,a,103,31,2,other-directed-x,n,művész,üzletember,üzletember,participant_id,NULL
1758558839,5ea96059c7f8c9bb71d4ecdb67ea496e,PennController,16,0,experiment,NULL,EyeTracker,tracker,Filename,httpsfarmpcibexnetpzCPVqO/e48687db-1afc-905a-9709-fabcc6e4dfe4,1758557495642,prolific_id,60d26e7cd9f0761e4d12b9f8,a,103,31,2,other-directed-x,n,művész,üzletember,üzletember,participant_id,NULL
1758558839,5ea96059c7f8c9bb71d4ecdb67ea496e,PennController,16,0,experiment,NULL,Canvas,right_canvas,Print,NA,1758557494873,prolific_id,60d26e7cd9f0761e4d12b9f8,a,103,31,2,other-directed-x,n,művész,üzletember,üzletember,participant_id,NULL
1758558839,5ea96059c7f8c9bb71d4ecdb67ea496e,PennController,16,0,experiment,NULL,Key,r0,PressedKey, ,1758557483453,prolific_id,60d26e7cd9f0761e4d12b9f8,a,103,31,2,other-directed-x,n,művész,üzletember,üzletember,participant_id,Wait success
1758558839,5ea96059c7f8c9bb71d4ecdb67ea496e,PennController,16,0,experiment,NULL,Key,r1,PressedKey, ,1758557483962,prolific_id,60d26e7cd9f0761e4d12b9f8,a,103,31,2,other-directed-x,n,művész,üzletember,üzletember,participant_id,Wait success
1758558839,5ea96059c7f8c9bb71d4ecdb67ea496e,PennController,16,0,experiment,NULL,Key,r2,PressedKey, ,1758557484704,prolific_id,60d26e7cd9f0761e4d12b9f8,a,103,31,2,other-directed-x,n,művész,üzletember,üzletember,participant_id,Wait success
1758558839,5ea96059c7f8c9bb71d4ecdb67ea496e,PennController,16,0,experiment,NULL,Key,r3,PressedKey, ,1758557485470,prolific_id,60d26e7cd9f0761e4d12b9f8,a,103,31,2,other-directed-x,n,művész,üzletember,üzletember,participant_id,Wait success
1758558839,5ea96059c7f8c9bb71d4ecdb67ea496e,PennController,16,0,experiment,NULL,Key,r4,PressedKey, ,1758557486160,prolific_id,60d26e7cd9f0761e4d12b9f8,a,103,31,2,other-directed-x,n,művész,üzletember,üzletember,participant_id,Wait success
1758558839,5ea96059c7f8c9bb71d4ecdb67ea496e,PennController,16,0,experiment,NULL,Key,r5,PressedKey, ,1758557486848,prolific_id,60d26e7cd9f0761e4d12b9f8,a,103,31,2,other-directed-x,n,művész,üzletember,üzletember,participant_id,Wait success
1758558839,5ea96059c7f8c9bb71d4ecdb67ea496e,PennController,16,0,experiment,NULL,Key,r7,PressedKey, ,1758557489399,prolific_id,60d26e7cd9f0761e4d12b9f8,a,103,31,2,other-directed-x,n,művész,üzletember,üzletember,participant_id,Wait success
1758558839,5ea96059c7f8c9bb71d4ecdb67ea496e,PennController,16,0,experiment,NULL,Key,question,PressedKey, ,1758557492842,prolific_id,60d26e7cd9f0761e4d12b9f8,a,103,31,2,other-directed-x,n,művész,üzletember,üzletember,participant_id,Wait success
1758558839,5ea96059c7f8c9bb71d4ecdb67ea496e,PennController,16,0,experiment,NULL,Selector,choice_selector,Selection,left_canvas,1758557495640,prolific_id,60d26e7cd9f0761e4d12b9f8,a,103,31,2,other-directed-x,n,művész,üzletember,üzletember,participant_id,left_canvas;right_canvas
1758558839,5ea96059c7f8c9bb71d4ecdb67ea496e,PennController,16,0,experiment,NULL,PennController,18,_Trial_,End,1758557495644,prolific_id,60d26e7cd9f0761e4d12b9f8,a,103,31,2,other-directed-x,n,művész,üzletember,üzletember,participant_id,NULL
1758558839,5ea96059c7f8c9bb71d4ecdb67ea496e,PennController,17,0,experiment,NULL,PennController,19,_Trial_,Start,1758557495646,prolific_id,60d26e7cd9f0761e4d12b9f8,a,67,22,2,self-directed,n,vezérigazgató,menedzser,menedzser,participant_id,NULL
1758558839,5ea96059c7f8c9bb71d4ecdb67ea496e,PennController,17,0,experiment,NULL,PennController,19,_Header_,Start,1758557495646,prolific_id,60d26e7cd9f0761e4d12b9f8,a,67,22,2,self-directed,n,vezérigazgató,menedzser,menedzser,participant_id,NULL
1758558839,5ea96059c7f8c9bb71d4ecdb67ea496e,PennController,17,0,experiment,NULL,PennController,19,_Header_,End,1758557495646,prolific_id,60d26e7cd9f0761e4d12b9f8,a,67,22,2,self-directed,n,vezérigazgató,menedzser,menedzser,participant_id,NULL
1758558839,5ea96059c7f8c9bb71d4ecdb67ea496e,PennController,17,0,experiment,NULL,EyeTracker,tracker,calibration,27,1758557499678,prolific_id,60d26e7cd9f0761e4d12b9f8,a,67,22,2,self-directed,n,vezérigazgató,menedzser,menedzser,participant_id,NULL
1758558839,5ea96059c7f8c9bb71d4ecdb67ea496e,PennController,17,0,experiment,NULL,EyeTracker,tracker,calibration,80,1758557542275,prolific_id,60d26e7cd9f0761e4d12b9f8,a,67,22,2,self-directed,n,vezérigazgató,menedzser,menedzser,participant_id,Last attempt
1758558839,5ea96059c7f8c9bb71d4ecdb67ea496e,PennController,17,0,experiment,NULL,EyeTracker,tracker,Filename,httpsfarmpcibexnetpzCPVqO/e48687db-1afc-905a-9709-fabcc6e4dfe4,1758557557087,prolific_id,60d26e7cd9f0761e4d12b9f8,a,67,22,2,self-directed,n,vezérigazgató,menedzser,menedzser,participant_id,NULL
1758558839,5ea96059c7f8c9bb71d4ecdb67ea496e,PennController,17,0,experiment,NULL,Canvas,right_canvas,Print,NA,1758557556290,prolific_id,60d26e7cd9f0761e4d12b9f8,a,67,22,2,self-directed,n,vezérigazgató,menedzser,menedzser,participant_id,NULL
1758558839,5ea96059c7f8c9bb71d4ecdb67ea496e,PennController,17,0,experiment,NULL,Key,r0,PressedKey, ,1758557547640,prolific_id,60d26e7cd9f0761e4d12b9f8,a,67,22,2,self-directed,n,vezérigazgató,menedzser,menedzser,participant_id,Wait success
1758558839,5ea96059c7f8c9bb71d4ecdb67ea496e,PennController,17,0,experiment,NULL,Key,r1,PressedKey, ,1758557548584,prolific_id,60d26e7cd9f0761e4d12b9f8,a,67,22,2,self-directed,n,vezérigazgató,menedzser,menedzser,participant_id,Wait success
1758558839,5ea96059c7f8c9bb71d4ecdb67ea496e,PennController,17,0,experiment,NULL,Key,r2,PressedKey, ,1758557549305,prolific_id,60d26e7cd9f0761e4d12b9f8,a,67,22,2,self-directed,n,vezérigazgató,menedzser,menedzser,participant_id,Wait success
1758558839,5ea96059c7f8c9bb71d4ecdb67ea496e,PennController,17,0,experiment,NULL,Key,r3,PressedKey, ,1758557550007,prolific_id,60d26e7cd9f0761e4d12b9f8,a,67,22,2,self-directed,n,vezérigazgató,menedzser,menedzser,participant_id,Wait success
1758558839,5ea96059c7f8c9bb71d4ecdb67ea496e,PennController,17,0,experiment,NULL,Key,r4,PressedKey, ,1758557550512,prolific_id,60d26e7cd9f0761e4d12b9f8,a,67,22,2,self-directed,n,vezérigazgató,menedzser,menedzser,participant_id,Wait success
1758558839,5ea96059c7f8c9bb71d4ecdb67ea496e,PennController,17,0,experiment,NULL,Key,r5,PressedKey, ,1758557551243,prolific_id,60d26e7cd9f0761e4d12b9f8,a,67,22,2,self-directed,n,vezérigazgató,menedzser,menedzser,participant_id,Wait success
1758558839,5ea96059c7f8c9bb71d4ecdb67ea496e,PennController,17,0,experiment,NULL,Key,r7,PressedKey, ,1758557551788,prolific_id,60d26e7cd9f0761e4d12b9f8,a,67,22,2,self-directed,n,vezérigazgató,menedzser,menedzser,participant_id,Wait success
1758558839,5ea96059c7f8c9bb71d4ecdb67ea496e,PennController,17,0,experiment,NULL,Key,question,PressedKey, ,1758557554254,prolific_id,60d26e7cd9f0761e4d12b9f8,a,67,22,2,self-directed,n,vezérigazgató,menedzser,menedzser,participant_id,Wait success
1758558839,5ea96059c7f8c9bb71d4ecdb67ea496e,PennController,17,0,experiment,NULL,Selector,choice_selector,Selection,left_canvas,1758557557086,prolific_id,60d26e7cd9f0761e4d12b9f8,a,67,22,2,self-directed,n,vezérigazgató,menedzser,menedzser,participant_id,left_canvas;right_canvas
1758558839,5ea96059c7f8c9bb71d4ecdb67ea496e,PennController,17,0,experiment,NULL,PennController,19,_Trial_,End,1758557557089,prolific_id,60d26e7cd9f0761e4d12b9f8,a,67,22,2,self-directed,n,vezérigazgató,menedzser,menedzser,participant_id,NULL
1758558839,5ea96059c7f8c9bb71d4ecdb67ea496e,PennController,18,0,experiment,NULL,PennController,20,_Trial_,Start,1758557557092,prolific_id,60d26e7cd9f0761e4d12b9f8,a,8,3,1,focus,y,3b,3a,,participant_id,NULL
1758558839,5ea96059c7f8c9bb71d4ecdb67ea496e,PennController,18,0,experiment,NULL,PennController,20,_Header_,Start,1758557557092,prolific_id,60d26e7cd9f0761e4d12b9f8,a,8,3,1,focus,y,3b,3a,,participant_id,NULL
1758558839,5ea96059c7f8c9bb71d4ecdb67ea496e,PennController,18,0,experiment,NULL,PennController,20,_Header_,End,1758557557092,prolific_id,60d26e7cd9f0761e4d12b9f8,a,8,3,1,focus,y,3b,3a,,participant_id,NULL
1758558839,5ea96059c7f8c9bb71d4ecdb67ea496e,PennController,18,0,experiment,NULL,EyeTracker,tracker,calibration,62,1758557561109,prolific_id,60d26e7cd9f0761e4d12b9f8,a,8,3,1,focus,y,3b,3a,,participant_id,NULL
1758558839,5ea96059c7f8c9bb71d4ecdb67ea496e,PennController,18,0,experiment,NULL,EyeTracker,tracker,Filename,httpsfarmpcibexnetpzCPVqO/e48687db-1afc-905a-9709-fabcc6e4dfe4,1758557575705,prolific_id,60d26e7cd9f0761e4d12b9f8,a,8,3,1,focus,y,3b,3a,,participant_id,NULL
1758558839,5ea96059c7f8c9bb71d4ecdb67ea496e,PennController,18,0,experiment,NULL,Canvas,right_canvas,Print,NA,1758557574251,prolific_id,60d26e7cd9f0761e4d12b9f8,a,8,3,1,focus,y,3b,3a,,participant_id,NULL
1758558839,5ea96059c7f8c9bb71d4ecdb67ea496e,PennController,18,0,experiment,NULL,Key,r0,PressedKey, ,1758557566874,prolific_id,60d26e7cd9f0761e4d12b9f8,a,8,3,1,focus,y,3b,3a,,participant_id,Wait success
1758558839,5ea96059c7f8c9bb71d4ecdb67ea496e,PennController,18,0,experiment,NULL,Key,r1,PressedKey, ,1758557567677,prolific_id,60d26e7cd9f0761e4d12b9f8,a,8,3,1,focus,y,3b,3a,,participant_id,Wait success
1758558839,5ea96059c7f8c9bb71d4ecdb67ea496e,PennController,18,0,experiment,NULL,Key,r2,PressedKey, ,1758557568469,prolific_id,60d26e7cd9f0761e4d12b9f8,a,8,3,1,focus,y,3b,3a,,participant_id,Wait success
1758558839,5ea96059c7f8c9bb71d4ecdb67ea496e,PennController,18,0,experiment,NULL,Key,r3,PressedKey, ,1758557569010,prolific_id,60d26e7cd9f0761e4d12b9f8,a,8,3,1,focus,y,3b,3a,,participant_id,Wait success
1758558839,5ea96059c7f8c9bb71d4ecdb67ea496e,PennController,18,0,experiment,NULL,Key,r4,PressedKey, ,1758557569539,prolific_id,60d26e7cd9f0761e4d12b9f8,a,8,3,1,focus,y,3b,3a,,participant_id,Wait success
1758558839,5ea96059c7f8c9bb71d4ecdb67ea496e,PennController,18,0,experiment,NULL,Key,r5,PressedKey, ,1758557569991,prolific_id,60d26e7cd9f0761e4d12b9f8,a,8,3,1,focus,y,3b,3a,,participant_id,Wait success
1758558839,5ea96059c7f8c9bb71d4ecdb67ea496e,PennController,18,0,experiment,NULL,Key,r6,PressedKey, ,1758557570716,prolific_id,60d26e7cd9f0761e4d12b9f8,a,8,3,1,focus,y,3b,3a,,participant_id,Wait success
1758558839,5ea96059c7f8c9bb71d4ecdb67ea496e,PennController,18,0,experiment,NULL,Key,r7,PressedKey, ,1758557571212,prolific_id,60d26e7cd9f0761e4d12b9f8,a,8,3,1,focus,y,3b,3a,,participant_id,Wait success
1758558839,5ea96059c7f8c9bb71d4ecdb67ea496e,PennController,18,0,experiment,NULL,Selector,choice_selector,Selection,left_canvas,1758557575704,prolific_id,60d26e7cd9f0761e4d12b9f8,a,8,3,1,focus,y,3b,3a,,participant_id,left_canvas;right_canvas
1758558839,5ea96059c7f8c9bb71d4ecdb67ea496e,PennController,18,0,experiment,NULL,PennController,20,_Trial_,End,1758557575706,prolific_id,60d26e7cd9f0761e4d12b9f8,a,8,3,1,focus,y,3b,3a,,participant_id,NULL
1758558839,5ea96059c7f8c9bb71d4ecdb67ea496e,PennController,19,0,experiment,NULL,PennController,21,_Trial_,Start,1758557575707,prolific_id,60d26e7cd9f0761e4d12b9f8,a,55,19,2,self-directed,n,szakács,dolgozó,dolgozó,participant_id,NULL
1758558839,5ea96059c7f8c9bb71d4ecdb67ea496e,PennController,19,0,experiment,NULL,PennController,21,_Header_,Start,1758557575707,prolific_id,60d26e7cd9f0761e4d12b9f8,a,55,19,2,self-directed,n,szakács,dolgozó,dolgozó,participant_id,NULL
1758558839,5ea96059c7f8c9bb71d4ecdb67ea496e,PennController,19,0,experiment,NULL,PennController,21,_Header_,End,1758557575707,prolific_id,60d26e7cd9f0761e4d12b9f8,a,55,19,2,self-directed,n,szakács,dolgozó,dolgozó,participant_id,NULL
1758558839,5ea96059c7f8c9bb71d4ecdb67ea496e,PennController,19,0,experiment,NULL,EyeTracker,tracker,calibration,54,1758557579730,prolific_id,60d26e7cd9f0761e4d12b9f8,a,55,19,2,self-directed,n,szakács,dolgozó,dolgozó,participant_id,NULL
1758558839,5ea96059c7f8c9bb71d4ecdb67ea496e,PennController,19,0,experiment,NULL,EyeTracker,tracker,calibration,64,1758557622186,prolific_id,60d26e7cd9f0761e4d12b9f8,a,55,19,2,self-directed,n,szakács,dolgozó,dolgozó,participant_id,Last attempt
1758558839,5ea96059c7f8c9bb71d4ecdb67ea496e,PennController,19,0,experiment,NULL,EyeTracker,tracker,Filename,httpsfarmpcibexnetpzCPVqO/e48687db-1afc-905a-9709-fabcc6e4dfe4,1758557638960,prolific_id,60d26e7cd9f0761e4d12b9f8,a,55,19,2,self-directed,n,szakács,dolgozó,dolgozó,participant_id,NULL
1758558839,5ea96059c7f8c9bb71d4ecdb67ea496e,PennController,19,0,experiment,NULL,Canvas,right_canvas,Print,NA,1758557637505,prolific_id,60d26e7cd9f0761e4d12b9f8,a,55,19,2,self-directed,n,szakács,dolgozó,dolgozó,participant_id,NULL
1758558839,5ea96059c7f8c9bb71d4ecdb67ea496e,PennController,19,0,experiment,NULL,Key,r0,PressedKey, ,1758557627230,prolific_id,60d26e7cd9f0761e4d12b9f8,a,55,19,2,self-directed,n,szakács,dolgozó,dolgozó,participant_id,Wait success
1758558839,5ea96059c7f8c9bb71d4ecdb67ea496e,PennController,19,0,experiment,NULL,Key,r1,PressedKey, ,1758557627928,prolific_id,60d26e7cd9f0761e4d12b9f8,a,55,19,2,self-directed,n,szakács,dolgozó,dolgozó,participant_id,Wait success
1758558839,5ea96059c7f8c9bb71d4ecdb67ea496e,PennController,19,0,experiment,NULL,Key,r2,PressedKey, ,1758557628624,prolific_id,60d26e7cd9f0761e4d12b9f8,a,55,19,2,self-directed,n,szakács,dolgozó,dolgozó,participant_id,Wait success
1758558839,5ea96059c7f8c9bb71d4ecdb67ea496e,PennController,19,0,experiment,NULL,Key,r3,PressedKey, ,1758557629109,prolific_id,60d26e7cd9f0761e4d12b9f8,a,55,19,2,self-directed,n,szakács,dolgozó,dolgozó,participant_id,Wait success
1758558839,5ea96059c7f8c9bb71d4ecdb67ea496e,PennController,19,0,experiment,NULL,Key,r4,PressedKey, ,1758557629670,prolific_id,60d26e7cd9f0761e4d12b9f8,a,55,19,2,self-directed,n,szakács,dolgozó,dolgozó,participant_id,Wait success
1758558839,5ea96059c7f8c9bb71d4ecdb67ea496e,PennController,19,0,experiment,NULL,Key,r5,PressedKey, ,1758557630460,prolific_id,60d26e7cd9f0761e4d12b9f8,a,55,19,2,self-directed,n,szakács,dolgozó,dolgozó,participant_id,Wait success
1758558839,5ea96059c7f8c9bb71d4ecdb67ea496e,PennController,19,0,experiment,NULL,Key,r7,PressedKey, ,1758557631062,prolific_id,60d26e7cd9f0761e4d12b9f8,a,55,19,2,self-directed,n,szakács,dolgozó,dolgozó,participant_id,Wait success
1758558839,5ea96059c7f8c9bb71d4ecdb67ea496e,PennController,19,0,experiment,NULL,Key,question,PressedKey, ,1758557635496,prolific_id,60d26e7cd9f0761e4d12b9f8,a,55,19,2,self-directed,n,szakács,dolgozó,dolgozó,participant_id,Wait success
1758558839,5ea96059c7f8c9bb71d4ecdb67ea496e,PennController,19,0,experiment,NULL,Selector,choice_selector,Selection,right_canvas,1758557638958,prolific_id,60d26e7cd9f0761e4d12b9f8,a,55,19,2,self-directed,n,szakács,dolgozó,dolgozó,participant_id,left_canvas;right_canvas
1758558839,5ea96059c7f8c9bb71d4ecdb67ea496e,PennController,19,0,experiment,NULL,PennController,21,_Trial_,End,1758557638961,prolific_id,60d26e7cd9f0761e4d12b9f8,a,55,19,2,self-directed,n,szakács,dolgozó,dolgozó,participant_id,NULL
1758558839,5ea96059c7f8c9bb71d4ecdb67ea496e,PennController,20,0,experiment,NULL,PennController,22,_Trial_,Start,1758557638964,prolific_id,60d26e7cd9f0761e4d12b9f8,a,117,35,,attention-check,n,pelikán,tigris,pelikán,participant_id,NULL
1758558839,5ea96059c7f8c9bb71d4ecdb67ea496e,PennController,20,0,experiment,NULL,PennController,22,_Header_,Start,1758557638964,prolific_id,60d26e7cd9f0761e4d12b9f8,a,117,35,,attention-check,n,pelikán,tigris,pelikán,participant_id,NULL
1758558839,5ea96059c7f8c9bb71d4ecdb67ea496e,PennController,20,0,experiment,NULL,PennController,22,_Header_,End,1758557638964,prolific_id,60d26e7cd9f0761e4d12b9f8,a,117,35,,attention-check,n,pelikán,tigris,pelikán,participant_id,NULL
1758558839,5ea96059c7f8c9bb71d4ecdb67ea496e,PennController,20,0,experiment,NULL,EyeTracker,tracker,calibration,80,1758557643009,prolific_id,60d26e7cd9f0761e4d12b9f8,a,117,35,,attention-check,n,pelikán,tigris,pelikán,participant_id,NULL
1758558839,5ea96059c7f8c9bb71d4ecdb67ea496e,PennController,20,0,experiment,NULL,EyeTracker,tracker,Filename,httpsfarmpcibexnetpzCPVqO/e48687db-1afc-905a-9709-fabcc6e4dfe4,1758557657977,prolific_id,60d26e7cd9f0761e4d12b9f8,a,117,35,,attention-check,n,pelikán,tigris,pelikán,participant_id,NULL
1758558839,5ea96059c7f8c9bb71d4ecdb67ea496e,PennController,20,0,experiment,NULL,Canvas,right_canvas,Print,NA,1758557656984,prolific_id,60d26e7cd9f0761e4d12b9f8,a,117,35,,attention-check,n,pelikán,tigris,pelikán,participant_id,NULL
1758558839,5ea96059c7f8c9bb71d4ecdb67ea496e,PennController,20,0,experiment,NULL,Key,r0,PressedKey, ,1758557648545,prolific_id,60d26e7cd9f0761e4d12b9f8,a,117,35,,attention-check,n,pelikán,tigris,pelikán,participant_id,Wait success
1758558839,5ea96059c7f8c9bb71d4ecdb67ea496e,PennController,20,0,experiment,NULL,Key,r1,PressedKey, ,1758557649134,prolific_id,60d26e7cd9f0761e4d12b9f8,a,117,35,,attention-check,n,pelikán,tigris,pelikán,participant_id,Wait success
1758558839,5ea96059c7f8c9bb71d4ecdb67ea496e,PennController,20,0,experiment,NULL,Key,r2,PressedKey, ,1758557649791,prolific_id,60d26e7cd9f0761e4d12b9f8,a,117,35,,attention-check,n,pelikán,tigris,pelikán,participant_id,Wait success
1758558839,5ea96059c7f8c9bb71d4ecdb67ea496e,PennController,20,0,experiment,NULL,Key,r3,PressedKey, ,1758557650473,prolific_id,60d26e7cd9f0761e4d12b9f8,a,117,35,,attention-check,n,pelikán,tigris,pelikán,participant_id,Wait success
1758558839,5ea96059c7f8c9bb71d4ecdb67ea496e,PennController,20,0,experiment,NULL,Key,r4,PressedKey, ,1758557651041,prolific_id,60d26e7cd9f0761e4d12b9f8,a,117,35,,attention-check,n,pelikán,tigris,pelikán,participant_id,Wait success
1758558839,5ea96059c7f8c9bb71d4ecdb67ea496e,PennController,20,0,experiment,NULL,Key,r5,PressedKey, ,1758557651677,prolific_id,60d26e7cd9f0761e4d12b9f8,a,117,35,,attention-check,n,pelikán,tigris,pelikán,participant_id,Wait success
1758558839,5ea96059c7f8c9bb71d4ecdb67ea496e,PennController,20,0,experiment,NULL,Key,r6,PressedKey, ,1758557652250,prolific_id,60d26e7cd9f0761e4d12b9f8,a,117,35,,attention-check,n,pelikán,tigris,pelikán,participant_id,Wait success
1758558839,5ea96059c7f8c9bb71d4ecdb67ea496e,PennController,20,0,experiment,NULL,Key,r7,PressedKey, ,1758557653154,prolific_id,60d26e7cd9f0761e4d12b9f8,a,117,35,,attention-check,n,pelikán,tigris,pelikán,participant_id,Wait success
1758558839,5ea96059c7f8c9bb71d4ecdb67ea496e,PennController,20,0,experiment,NULL,Key,question,PressedKey, ,1758557654958,prolific_id,60d26e7cd9f0761e4d12b9f8,a,117,35,,attention-check,n,pelikán,tigris,pelikán,participant_id,Wait success
1758558839,5ea96059c7f8c9bb71d4ecdb67ea496e,PennController,20,0,experiment,NULL,Selector,choice_selector,Selection,left_canvas,1758557657976,prolific_id,60d26e7cd9f0761e4d12b9f8,a,117,35,,attention-check,n,pelikán,tigris,pelikán,participant_id,left_canvas;right_canvas
1758558839,5ea96059c7f8c9bb71d4ecdb67ea496e,PennController,20,0,experiment,NULL,PennController,22,_Trial_,End,1758557657978,prolific_id,60d26e7cd9f0761e4d12b9f8,a,117,35,,attention-check,n,pelikán,tigris,pelikán,participant_id,NULL
1758558839,5ea96059c7f8c9bb71d4ecdb67ea496e,PennController,21,0,experiment,NULL,PennController,23,_Trial_,Start,1758557657979,prolific_id,60d26e7cd9f0761e4d12b9f8,a,53,18,1,focus,n,18a,18b,,participant_id,NULL
1758558839,5ea96059c7f8c9bb71d4ecdb67ea496e,PennController,21,0,experiment,NULL,PennController,23,_Header_,Start,1758557657979,prolific_id,60d26e7cd9f0761e4d12b9f8,a,53,18,1,focus,n,18a,18b,,participant_id,NULL
1758558839,5ea96059c7f8c9bb71d4ecdb67ea496e,PennController,21,0,experiment,NULL,PennController,23,_Header_,End,1758557657979,prolific_id,60d26e7cd9f0761e4d12b9f8,a,53,18,1,focus,n,18a,18b,,participant_id,NULL
1758558839,5ea96059c7f8c9bb71d4ecdb67ea496e,PennController,21,0,experiment,NULL,EyeTracker,tracker,calibration,63,1758557662006,prolific_id,60d26e7cd9f0761e4d12b9f8,a,53,18,1,focus,n,18a,18b,,participant_id,NULL
1758558839,5ea96059c7f8c9bb71d4ecdb67ea496e,PennController,21,0,experiment,NULL,EyeTracker,tracker,Filename,httpsfarmpcibexnetpzCPVqO/e48687db-1afc-905a-9709-fabcc6e4dfe4,1758557679093,prolific_id,60d26e7cd9f0761e4d12b9f8,a,53,18,1,focus,n,18a,18b,,participant_id,NULL
1758558839,5ea96059c7f8c9bb71d4ecdb67ea496e,PennController,21,0,experiment,NULL,Canvas,right_canvas,Print,NA,1758557677633,prolific_id,60d26e7cd9f0761e4d12b9f8,a,53,18,1,focus,n,18a,18b,,participant_id,NULL
1758558839,5ea96059c7f8c9bb71d4ecdb67ea496e,PennController,21,0,experiment,NULL,Key,r0,PressedKey, ,1758557670460,prolific_id,60d26e7cd9f0761e4d12b9f8,a,53,18,1,focus,n,18a,18b,,participant_id,Wait success
1758558839,5ea96059c7f8c9bb71d4ecdb67ea496e,PennController,21,0,experiment,NULL,Key,r1,PressedKey, ,1758557670957,prolific_id,60d26e7cd9f0761e4d12b9f8,a,53,18,1,focus,n,18a,18b,,participant_id,Wait success
1758558839,5ea96059c7f8c9bb71d4ecdb67ea496e,PennController,21,0,experiment,NULL,Key,r2,PressedKey, ,1758557671565,prolific_id,60d26e7cd9f0761e4d12b9f8,a,53,18,1,focus,n,18a,18b,,participant_id,Wait success
1758558839,5ea96059c7f8c9bb71d4ecdb67ea496e,PennController,21,0,experiment,NULL,Key,r3,PressedKey, ,1758557672131,prolific_id,60d26e7cd9f0761e4d12b9f8,a,53,18,1,focus,n,18a,18b,,participant_id,Wait success
1758558839,5ea96059c7f8c9bb71d4ecdb67ea496e,PennController,21,0,experiment,NULL,Key,r4,PressedKey, ,1758557672672,prolific_id,60d26e7cd9f0761e4d12b9f8,a,53,18,1,focus,n,18a,18b,,participant_id,Wait success
1758558839,5ea96059c7f8c9bb71d4ecdb67ea496e,PennController,21,0,experiment,NULL,Key,r5,PressedKey, ,1758557673419,prolific_id,60d26e7cd9f0761e4d12b9f8,a,53,18,1,focus,n,18a,18b,,participant_id,Wait success
1758558839,5ea96059c7f8c9bb71d4ecdb67ea496e,PennController,21,0,experiment,NULL,Key,r6,PressedKey, ,1758557674034,prolific_id,60d26e7cd9f0761e4d12b9f8,a,53,18,1,focus,n,18a,18b,,participant_id,Wait success
1758558839,5ea96059c7f8c9bb71d4ecdb67ea496e,PennController,21,0,experiment,NULL,Key,r7,PressedKey, ,1758557674601,prolific_id,60d26e7cd9f0761e4d12b9f8,a,53,18,1,focus,n,18a,18b,,participant_id,Wait success
1758558839,5ea96059c7f8c9bb71d4ecdb67ea496e,PennController,21,0,experiment,NULL,Selector,choice_selector,Selection,left_canvas,1758557679091,prolific_id,60d26e7cd9f0761e4d12b9f8,a,53,18,1,focus,n,18a,18b,,participant_id,left_canvas;right_canvas
1758558839,5ea96059c7f8c9bb71d4ecdb67ea496e,PennController,21,0,experiment,NULL,PennController,23,_Trial_,End,1758557679094,prolific_id,60d26e7cd9f0761e4d12b9f8,a,53,18,1,focus,n,18a,18b,,participant_id,NULL
1758558839,5ea96059c7f8c9bb71d4ecdb67ea496e,PennController,22,0,experiment,NULL,PennController,24,_Trial_,Start,1758557679096,prolific_id,60d26e7cd9f0761e4d12b9f8,a,70,22,2,other-directed-x,y,vezérigazgató,menedzser,menedzser,participant_id,NULL
1758558839,5ea96059c7f8c9bb71d4ecdb67ea496e,PennController,22,0,experiment,NULL,PennController,24,_Header_,Start,1758557679096,prolific_id,60d26e7cd9f0761e4d12b9f8,a,70,22,2,other-directed-x,y,vezérigazgató,menedzser,menedzser,participant_id,NULL
1758558839,5ea96059c7f8c9bb71d4ecdb67ea496e,PennController,22,0,experiment,NULL,PennController,24,_Header_,End,1758557679096,prolific_id,60d26e7cd9f0761e4d12b9f8,a,70,22,2,other-directed-x,y,vezérigazgató,menedzser,menedzser,participant_id,NULL
1758558839,5ea96059c7f8c9bb71d4ecdb67ea496e,PennController,22,0,experiment,NULL,EyeTracker,tracker,calibration,69,1758557683136,prolific_id,60d26e7cd9f0761e4d12b9f8,a,70,22,2,other-directed-x,y,vezérigazgató,menedzser,menedzser,participant_id,NULL
1758558839,5ea96059c7f8c9bb71d4ecdb67ea496e,PennController,22,0,experiment,NULL,EyeTracker,tracker,Filename,httpsfarmpcibexnetpzCPVqO/e48687db-1afc-905a-9709-fabcc6e4dfe4,1758557697663,prolific_id,60d26e7cd9f0761e4d12b9f8,a,70,22,2,other-directed-x,y,vezérigazgató,menedzser,menedzser,participant_id,NULL
1758558839,5ea96059c7f8c9bb71d4ecdb67ea496e,PennController,22,0,experiment,NULL,Canvas,right_canvas,Print,NA,1758557696884,prolific_id,60d26e7cd9f0761e4d12b9f8,a,70,22,2,other-directed-x,y,vezérigazgató,menedzser,menedzser,participant_id,NULL
1758558839,5ea96059c7f8c9bb71d4ecdb67ea496e,PennController,22,0,experiment,NULL,Key,r0,PressedKey, ,1758557689115,prolific_id,60d26e7cd9f0761e4d12b9f8,a,70,22,2,other-directed-x,y,vezérigazgató,menedzser,menedzser,participant_id,Wait success
1758558839,5ea96059c7f8c9bb71d4ecdb67ea496e,PennController,22,0,experiment,NULL,Key,r1,PressedKey, ,1758557689644,prolific_id,60d26e7cd9f0761e4d12b9f8,a,70,22,2,other-directed-x,y,vezérigazgató,menedzser,menedzser,participant_id,Wait success
1758558839,5ea96059c7f8c9bb71d4ecdb67ea496e,PennController,22,0,experiment,NULL,Key,r2,PressedKey, ,1758557690217,prolific_id,60d26e7cd9f0761e4d12b9f8,a,70,22,2,other-directed-x,y,vezérigazgató,menedzser,menedzser,participant_id,Wait success
1758558839,5ea96059c7f8c9bb71d4ecdb67ea496e,PennController,22,0,experiment,NULL,Key,r3,PressedKey, ,1758557690773,prolific_id,60d26e7cd9f0761e4d12b9f8,a,70,22,2,other-directed-x,y,vezérigazgató,menedzser,menedzser,participant_id,Wait success
1758558839,5ea96059c7f8c9bb71d4ecdb67ea496e,PennController,22,0,experiment,NULL,Key,r4,PressedKey, ,1758557691350,prolific_id,60d26e7cd9f0761e4d12b9f8,a,70,22,2,other-directed-x,y,vezérigazgató,menedzser,menedzser,participant_id,Wait success
1758558839,5ea96059c7f8c9bb71d4ecdb67ea496e,PennController,22,0,experiment,NULL,Key,r5,PressedKey, ,1758557692006,prolific_id,60d26e7cd9f0761e4d12b9f8,a,70,22,2,other-directed-x,y,vezérigazgató,menedzser,menedzser,participant_id,Wait success
1758558839,5ea96059c7f8c9bb71d4ecdb67ea496e,PennController,22,0,experiment,NULL,Key,r7,PressedKey, ,1758557692709,prolific_id,60d26e7cd9f0761e4d12b9f8,a,70,22,2,other-directed-x,y,vezérigazgató,menedzser,menedzser,participant_id,Wait success
1758558839,5ea96059c7f8c9bb71d4ecdb67ea496e,PennController,22,0,experiment,NULL,Key,question,PressedKey, ,1758557694861,prolific_id,60d26e7cd9f0761e4d12b9f8,a,70,22,2,other-directed-x,y,vezérigazgató,menedzser,menedzser,participant_id,Wait success
1758558839,5ea96059c7f8c9bb71d4ecdb67ea496e,PennController,22,0,experiment,NULL,Selector,choice_selector,Selection,left_canvas,1758557697662,prolific_id,60d26e7cd9f0761e4d12b9f8,a,70,22,2,other-directed-x,y,vezérigazgató,menedzser,menedzser,participant_id,left_canvas;right_canvas
1758558839,5ea96059c7f8c9bb71d4ecdb67ea496e,PennController,22,0,experiment,NULL,PennController,24,_Trial_,End,1758557697665,prolific_id,60d26e7cd9f0761e4d12b9f8,a,70,22,2,other-directed-x,y,vezérigazgató,menedzser,menedzser,participant_id,NULL
1758558839,5ea96059c7f8c9bb71d4ecdb67ea496e,PennController,23,0,experiment,NULL,PennController,25,_Trial_,Start,1758557697667,prolific_id,60d26e7cd9f0761e4d12b9f8,a,79,25,2,self-directed,n,ügyész,tudós,tudós,participant_id,NULL
1758558839,5ea96059c7f8c9bb71d4ecdb67ea496e,PennController,23,0,experiment,NULL,PennController,25,_Header_,Start,1758557697667,prolific_id,60d26e7cd9f0761e4d12b9f8,a,79,25,2,self-directed,n,ügyész,tudós,tudós,participant_id,NULL
1758558839,5ea96059c7f8c9bb71d4ecdb67ea496e,PennController,23,0,experiment,NULL,PennController,25,_Header_,End,1758557697667,prolific_id,60d26e7cd9f0761e4d12b9f8,a,79,25,2,self-directed,n,ügyész,tudós,tudós,participant_id,NULL
1758558839,5ea96059c7f8c9bb71d4ecdb67ea496e,PennController,23,0,experiment,NULL,EyeTracker,tracker,calibration,69,1758557701689,prolific_id,60d26e7cd9f0761e4d12b9f8,a,79,25,2,self-directed,n,ügyész,tudós,tudós,participant_id,NULL
1758558839,5ea96059c7f8c9bb71d4ecdb67ea496e,PennController,23,0,experiment,NULL,EyeTracker,tracker,Filename,httpsfarmpcibexnetpzCPVqO/e48687db-1afc-905a-9709-fabcc6e4dfe4,1758557716874,prolific_id,60d26e7cd9f0761e4d12b9f8,a,79,25,2,self-directed,n,ügyész,tudós,tudós,participant_id,NULL
1758558839,5ea96059c7f8c9bb71d4ecdb67ea496e,PennController,23,0,experiment,NULL,Canvas,right_canvas,Print,NA,1758557715754,prolific_id,60d26e7cd9f0761e4d12b9f8,a,79,25,2,self-directed,n,ügyész,tudós,tudós,participant_id,NULL
1758558839,5ea96059c7f8c9bb71d4ecdb67ea496e,PennController,23,0,experiment,NULL,Key,r0,PressedKey, ,1758557706484,prolific_id,60d26e7cd9f0761e4d12b9f8,a,79,25,2,self-directed,n,ügyész,tudós,tudós,participant_id,Wait success
1758558839,5ea96059c7f8c9bb71d4ecdb67ea496e,PennController,23,0,experiment,NULL,Key,r1,PressedKey, ,1758557707181,prolific_id,60d26e7cd9f0761e4d12b9f8,a,79,25,2,self-directed,n,ügyész,tudós,tudós,participant_id,Wait success
1758558839,5ea96059c7f8c9bb71d4ecdb67ea496e,PennController,23,0,experiment,NULL,Key,r2,PressedKey, ,1758557707830,prolific_id,60d26e7cd9f0761e4d12b9f8,a,79,25,2,self-directed,n,ügyész,tudós,tudós,participant_id,Wait success
1758558839,5ea96059c7f8c9bb71d4ecdb67ea496e,PennController,23,0,experiment,NULL,Key,r3,PressedKey, ,1758557708577,prolific_id,60d26e7cd9f0761e4d12b9f8,a,79,25,2,self-directed,n,ügyész,tudós,tudós,participant_id,Wait success
1758558839,5ea96059c7f8c9bb71d4ecdb67ea496e,PennController,23,0,experiment,NULL,Key,r4,PressedKey, ,1758557709107,prolific_id,60d26e7cd9f0761e4d12b9f8,a,79,25,2,self-directed,n,ügyész,tudós,tudós,participant_id,Wait success
1758558839,5ea96059c7f8c9bb71d4ecdb67ea496e,PennController,23,0,experiment,NULL,Key,r5,PressedKey, ,1758557709708,prolific_id,60d26e7cd9f0761e4d12b9f8,a,79,25,2,self-directed,n,ügyész,tudós,tudós,participant_id,Wait success
1758558839,5ea96059c7f8c9bb71d4ecdb67ea496e,PennController,23,0,experiment,NULL,Key,r7,PressedKey, ,1758557710293,prolific_id,60d26e7cd9f0761e4d12b9f8,a,79,25,2,self-directed,n,ügyész,tudós,tudós,participant_id,Wait success
1758558839,5ea96059c7f8c9bb71d4ecdb67ea496e,PennController,23,0,experiment,NULL,Key,question,PressedKey, ,1758557713734,prolific_id,60d26e7cd9f0761e4d12b9f8,a,79,25,2,self-directed,n,ügyész,tudós,tudós,participant_id,Wait success
1758558839,5ea96059c7f8c9bb71d4ecdb67ea496e,PennController,23,0,experiment,NULL,Selector,choice_selector,Selection,right_canvas,1758557716872,prolific_id,60d26e7cd9f0761e4d12b9f8,a,79,25,2,self-directed,n,ügyész,tudós,tudós,participant_id,left_canvas;right_canvas
1758558839,5ea96059c7f8c9bb71d4ecdb67ea496e,PennController,23,0,experiment,NULL,PennController,25,_Trial_,End,1758557716875,prolific_id,60d26e7cd9f0761e4d12b9f8,a,79,25,2,self-directed,n,ügyész,tudós,tudós,participant_id,NULL
1758558839,5ea96059c7f8c9bb71d4ecdb67ea496e,PennController,24,0,experiment,NULL,PennController,26,_Trial_,Start,1758557716876,prolific_id,60d26e7cd9f0761e4d12b9f8,a,58,19,2,other-directed-x,y,szakács,dolgozó,dolgozó,participant_id,NULL
1758558839,5ea96059c7f8c9bb71d4ecdb67ea496e,PennController,24,0,experiment,NULL,PennController,26,_Header_,Start,1758557716876,prolific_id,60d26e7cd9f0761e4d12b9f8,a,58,19,2,other-directed-x,y,szakács,dolgozó,dolgozó,participant_id,NULL
1758558839,5ea96059c7f8c9bb71d4ecdb67ea496e,PennController,24,0,experiment,NULL,PennController,26,_Header_,End,1758557716876,prolific_id,60d26e7cd9f0761e4d12b9f8,a,58,19,2,other-directed-x,y,szakács,dolgozó,dolgozó,participant_id,NULL
1758558839,5ea96059c7f8c9bb71d4ecdb67ea496e,PennController,24,0,experiment,NULL,EyeTracker,tracker,calibration,52,1758557720886,prolific_id,60d26e7cd9f0761e4d12b9f8,a,58,19,2,other-directed-x,y,szakács,dolgozó,dolgozó,participant_id,NULL
1758558839,5ea96059c7f8c9bb71d4ecdb67ea496e,PennController,24,0,experiment,NULL,EyeTracker,tracker,calibration,80,1758557764158,prolific_id,60d26e7cd9f0761e4d12b9f8,a,58,19,2,other-directed-x,y,szakács,dolgozó,dolgozó,participant_id,Last attempt
1758558839,5ea96059c7f8c9bb71d4ecdb67ea496e,PennController,24,0,experiment,NULL,EyeTracker,tracker,Filename,httpsfarmpcibexnetpzCPVqO/e48687db-1afc-905a-9709-fabcc6e4dfe4,1758557778246,prolific_id,60d26e7cd9f0761e4d12b9f8,a,58,19,2,other-directed-x,y,szakács,dolgozó,dolgozó,participant_id,NULL
1758558839,5ea96059c7f8c9bb71d4ecdb67ea496e,PennController,24,0,experiment,NULL,Canvas,right_canvas,Print,NA,1758557777325,prolific_id,60d26e7cd9f0761e4d12b9f8,a,58,19,2,other-directed-x,y,szakács,dolgozó,dolgozó,participant_id,NULL
1758558839,5ea96059c7f8c9bb71d4ecdb67ea496e,PennController,24,0,experiment,NULL,Key,r0,PressedKey, ,1758557769412,prolific_id,60d26e7cd9f0761e4d12b9f8,a,58,19,2,other-directed-x,y,szakács,dolgozó,dolgozó,participant_id,Wait success
1758558839,5ea96059c7f8c9bb71d4ecdb67ea496e,PennController,24,0,experiment,NULL,Key,r1,PressedKey, ,1758557770007,prolific_id,60d26e7cd9f0761e4d12b9f8,a,58,19,2,other-directed-x,y,szakács,dolgozó,dolgozó,participant_id,Wait success
1758558839,5ea96059c7f8c9bb71d4ecdb67ea496e,PennController,24,0,experiment,NULL,Key,r2,PressedKey, ,1758557770633,prolific_id,60d26e7cd9f0761e4d12b9f8,a,58,19,2,other-directed-x,y,szakács,dolgozó,dolgozó,participant_id,Wait success
1758558839,5ea96059c7f8c9bb71d4ecdb67ea496e,PennController,24,0,experiment,NULL,Key,r3,PressedKey, ,1758557771071,prolific_id,60d26e7cd9f0761e4d12b9f8,a,58,19,2,other-directed-x,y,szakács,dolgozó,dolgozó,participant_id,Wait success
1758558839,5ea96059c7f8c9bb71d4ecdb67ea496e,PennController,24,0,experiment,NULL,Key,r4,PressedKey, ,1758557771535,prolific_id,60d26e7cd9f0761e4d12b9f8,a,58,19,2,other-directed-x,y,szakács,dolgozó,dolgozó,participant_id,Wait success
1758558839,5ea96059c7f8c9bb71d4ecdb67ea496e,PennController,24,0,experiment,NULL,Key,r5,PressedKey, ,1758557772154,prolific_id,60d26e7cd9f0761e4d12b9f8,a,58,19,2,other-directed-x,y,szakács,dolgozó,dolgozó,participant_id,Wait success
1758558839,5ea96059c7f8c9bb71d4ecdb67ea496e,PennController,24,0,experiment,NULL,Key,r7,PressedKey, ,1758557772951,prolific_id,60d26e7cd9f0761e4d12b9f8,a,58,19,2,other-directed-x,y,szakács,dolgozó,dolgozó,participant_id,Wait success
1758558839,5ea96059c7f8c9bb71d4ecdb67ea496e,PennController,24,0,experiment,NULL,Key,question,PressedKey, ,1758557775305,prolific_id,60d26e7cd9f0761e4d12b9f8,a,58,19,2,other-directed-x,y,szakács,dolgozó,dolgozó,participant_id,Wait success
1758558839,5ea96059c7f8c9bb71d4ecdb67ea496e,PennController,24,0,experiment,NULL,Selector,choice_selector,Selection,right_canvas,1758557778244,prolific_id,60d26e7cd9f0761e4d12b9f8,a,58,19,2,other-directed-x,y,szakács,dolgozó,dolgozó,participant_id,left_canvas;right_canvas
1758558839,5ea96059c7f8c9bb71d4ecdb67ea496e,PennController,24,0,experiment,NULL,PennController,26,_Trial_,End,1758557778248,prolific_id,60d26e7cd9f0761e4d12b9f8,a,58,19,2,other-directed-x,y,szakács,dolgozó,dolgozó,participant_id,NULL
1758558839,5ea96059c7f8c9bb71d4ecdb67ea496e,PennController,25,0,experiment,NULL,PennController,27,_Trial_,Start,1758557778251,prolific_id,60d26e7cd9f0761e4d12b9f8,a,85,26,2,self-directed-x,n,professzor,pilóta,pilóta,participant_id,NULL
1758558839,5ea96059c7f8c9bb71d4ecdb67ea496e,PennController,25,0,experiment,NULL,PennController,27,_Header_,Start,1758557778251,prolific_id,60d26e7cd9f0761e4d12b9f8,a,85,26,2,self-directed-x,n,professzor,pilóta,pilóta,participant_id,NULL
1758558839,5ea96059c7f8c9bb71d4ecdb67ea496e,PennController,25,0,experiment,NULL,PennController,27,_Header_,End,1758557778251,prolific_id,60d26e7cd9f0761e4d12b9f8,a,85,26,2,self-directed-x,n,professzor,pilóta,pilóta,participant_id,NULL
1758558839,5ea96059c7f8c9bb71d4ecdb67ea496e,PennController,25,0,experiment,NULL,EyeTracker,tracker,calibration,62,1758557782267,prolific_id,60d26e7cd9f0761e4d12b9f8,a,85,26,2,self-directed-x,n,professzor,pilóta,pilóta,participant_id,NULL
1758558839,5ea96059c7f8c9bb71d4ecdb67ea496e,PennController,25,0,experiment,NULL,EyeTracker,tracker,Filename,httpsfarmpcibexnetpzCPVqO/e48687db-1afc-905a-9709-fabcc6e4dfe4,1758557795642,prolific_id,60d26e7cd9f0761e4d12b9f8,a,85,26,2,self-directed-x,n,professzor,pilóta,pilóta,participant_id,NULL
1758558839,5ea96059c7f8c9bb71d4ecdb67ea496e,PennController,25,0,experiment,NULL,Canvas,right_canvas,Print,NA,1758557794933,prolific_id,60d26e7cd9f0761e4d12b9f8,a,85,26,2,self-directed-x,n,professzor,pilóta,pilóta,participant_id,NULL
1758558839,5ea96059c7f8c9bb71d4ecdb67ea496e,PennController,25,0,experiment,NULL,Key,r0,PressedKey, ,1758557787320,prolific_id,60d26e7cd9f0761e4d12b9f8,a,85,26,2,self-directed-x,n,professzor,pilóta,pilóta,participant_id,Wait success
1758558839,5ea96059c7f8c9bb71d4ecdb67ea496e,PennController,25,0,experiment,NULL,Key,r1,PressedKey, ,1758557788150,prolific_id,60d26e7cd9f0761e4d12b9f8,a,85,26,2,self-directed-x,n,professzor,pilóta,pilóta,participant_id,Wait success
1758558839,5ea96059c7f8c9bb71d4ecdb67ea496e,PennController,25,0,experiment,NULL,Key,r2,PressedKey, ,1758557788715,prolific_id,60d26e7cd9f0761e4d12b9f8,a,85,26,2,self-directed-x,n,professzor,pilóta,pilóta,participant_id,Wait success
1758558839,5ea96059c7f8c9bb71d4ecdb67ea496e,PennController,25,0,experiment,NULL,Key,r3,PressedKey, ,1758557789152,prolific_id,60d26e7cd9f0761e4d12b9f8,a,85,26,2,self-directed-x,n,professzor,pilóta,pilóta,participant_id,Wait success
1758558839,5ea96059c7f8c9bb71d4ecdb67ea496e,PennController,25,0,experiment,NULL,Key,r4,PressedKey, ,1758557789599,prolific_id,60d26e7cd9f0761e4d12b9f8,a,85,26,2,self-directed-x,n,professzor,pilóta,pilóta,participant_id,Wait success
1758558839,5ea96059c7f8c9bb71d4ecdb67ea496e,PennController,25,0,experiment,NULL,Key,r5,PressedKey, ,1758557790131,prolific_id,60d26e7cd9f0761e4d12b9f8,a,85,26,2,self-directed-x,n,professzor,pilóta,pilóta,participant_id,Wait success
1758558839,5ea96059c7f8c9bb71d4ecdb67ea496e,PennController,25,0,experiment,NULL,Key,r7,PressedKey, ,1758557791052,prolific_id,60d26e7cd9f0761e4d12b9f8,a,85,26,2,self-directed-x,n,professzor,pilóta,pilóta,participant_id,Wait success
1758558839,5ea96059c7f8c9bb71d4ecdb67ea496e,PennController,25,0,experiment,NULL,Key,question,PressedKey, ,1758557792910,prolific_id,60d26e7cd9f0761e4d12b9f8,a,85,26,2,self-directed-x,n,professzor,pilóta,pilóta,participant_id,Wait success
1758558839,5ea96059c7f8c9bb71d4ecdb67ea496e,PennController,25,0,experiment,NULL,Selector,choice_selector,Selection,right_canvas,1758557795641,prolific_id,60d26e7cd9f0761e4d12b9f8,a,85,26,2,self-directed-x,n,professzor,pilóta,pilóta,participant_id,left_canvas;right_canvas
1758558839,5ea96059c7f8c9bb71d4ecdb67ea496e,PennController,25,0,experiment,NULL,PennController,27,_Trial_,End,1758557795643,prolific_id,60d26e7cd9f0761e4d12b9f8,a,85,26,2,self-directed-x,n,professzor,pilóta,pilóta,participant_id,NULL
1758558839,5ea96059c7f8c9bb71d4ecdb67ea496e,PennController,26,0,experiment,NULL,PennController,28,_Trial_,Start,1758557795645,prolific_id,60d26e7cd9f0761e4d12b9f8,a,82,25,2,other-directed-x,y,ügyész,tudós,tudós,participant_id,NULL
1758558839,5ea96059c7f8c9bb71d4ecdb67ea496e,PennController,26,0,experiment,NULL,PennController,28,_Header_,Start,1758557795645,prolific_id,60d26e7cd9f0761e4d12b9f8,a,82,25,2,other-directed-x,y,ügyész,tudós,tudós,participant_id,NULL
1758558839,5ea96059c7f8c9bb71d4ecdb67ea496e,PennController,26,0,experiment,NULL,PennController,28,_Header_,End,1758557795645,prolific_id,60d26e7cd9f0761e4d12b9f8,a,82,25,2,other-directed-x,y,ügyész,tudós,tudós,participant_id,NULL
1758558839,5ea96059c7f8c9bb71d4ecdb67ea496e,PennController,26,0,experiment,NULL,EyeTracker,tracker,calibration,62,1758557799664,prolific_id,60d26e7cd9f0761e4d12b9f8,a,82,25,2,other-directed-x,y,ügyész,tudós,tudós,participant_id,NULL
1758558839,5ea96059c7f8c9bb71d4ecdb67ea496e,PennController,26,0,experiment,NULL,EyeTracker,tracker,Filename,httpsfarmpcibexnetpzCPVqO/e48687db-1afc-905a-9709-fabcc6e4dfe4,1758557816248,prolific_id,60d26e7cd9f0761e4d12b9f8,a,82,25,2,other-directed-x,y,ügyész,tudós,tudós,participant_id,NULL
1758558839,5ea96059c7f8c9bb71d4ecdb67ea496e,PennController,26,0,experiment,NULL,Canvas,right_canvas,Print,NA,1758557815456,prolific_id,60d26e7cd9f0761e4d12b9f8,a,82,25,2,other-directed-x,y,ügyész,tudós,tudós,participant_id,NULL
1758558839,5ea96059c7f8c9bb71d4ecdb67ea496e,PennController,26,0,experiment,NULL,Key,r0,PressedKey, ,1758557807525,prolific_id,60d26e7cd9f0761e4d12b9f8,a,82,25,2,other-directed-x,y,ügyész,tudós,tudós,participant_id,Wait success
1758558839,5ea96059c7f8c9bb71d4ecdb67ea496e,PennController,26,0,experiment,NULL,Key,r1,PressedKey, ,1758557808084,prolific_id,60d26e7cd9f0761e4d12b9f8,a,82,25,2,other-directed-x,y,ügyész,tudós,tudós,participant_id,Wait success
1758558839,5ea96059c7f8c9bb71d4ecdb67ea496e,PennController,26,0,experiment,NULL,Key,r2,PressedKey, ,1758557808770,prolific_id,60d26e7cd9f0761e4d12b9f8,a,82,25,2,other-directed-x,y,ügyész,tudós,tudós,participant_id,Wait success
1758558839,5ea96059c7f8c9bb71d4ecdb67ea496e,PennController,26,0,experiment,NULL,Key,r3,PressedKey, ,1758557809757,prolific_id,60d26e7cd9f0761e4d12b9f8,a,82,25,2,other-directed-x,y,ügyész,tudós,tudós,participant_id,Wait success
1758558839,5ea96059c7f8c9bb71d4ecdb67ea496e,PennController,26,0,experiment,NULL,Key,r4,PressedKey, ,1758557810222,prolific_id,60d26e7cd9f0761e4d12b9f8,a,82,25,2,other-directed-x,y,ügyész,tudós,tudós,participant_id,Wait success
1758558839,5ea96059c7f8c9bb71d4ecdb67ea496e,PennController,26,0,experiment,NULL,Key,r5,PressedKey, ,1758557810859,prolific_id,60d26e7cd9f0761e4d12b9f8,a,82,25,2,other-directed-x,y,ügyész,tudós,tudós,participant_id,Wait success
1758558839,5ea96059c7f8c9bb71d4ecdb67ea496e,PennController,26,0,experiment,NULL,Key,r7,PressedKey, ,1758557811485,prolific_id,60d26e7cd9f0761e4d12b9f8,a,82,25,2,other-directed-x,y,ügyész,tudós,tudós,participant_id,Wait success
1758558839,5ea96059c7f8c9bb71d4ecdb67ea496e,PennController,26,0,experiment,NULL,Key,question,PressedKey, ,1758557813447,prolific_id,60d26e7cd9f0761e4d12b9f8,a,82,25,2,other-directed-x,y,ügyész,tudós,tudós,participant_id,Wait success
1758558839,5ea96059c7f8c9bb71d4ecdb67ea496e,PennController,26,0,experiment,NULL,Selector,choice_selector,Selection,right_canvas,1758557816247,prolific_id,60d26e7cd9f0761e4d12b9f8,a,82,25,2,other-directed-x,y,ügyész,tudós,tudós,participant_id,left_canvas;right_canvas
1758558839,5ea96059c7f8c9bb71d4ecdb67ea496e,PennController,26,0,experiment,NULL,PennController,28,_Trial_,End,1758557816249,prolific_id,60d26e7cd9f0761e4d12b9f8,a,82,25,2,other-directed-x,y,ügyész,tudós,tudós,participant_id,NULL
1758558839,5ea96059c7f8c9bb71d4ecdb67ea496e,PennController,27,0,experiment,NULL,PennController,29,_Trial_,Start,1758557816251,prolific_id,60d26e7cd9f0761e4d12b9f8,a,35,12,1,focus,n,12a,12b,,participant_id,NULL
1758558839,5ea96059c7f8c9bb71d4ecdb67ea496e,PennController,27,0,experiment,NULL,PennController,29,_Header_,Start,1758557816251,prolific_id,60d26e7cd9f0761e4d12b9f8,a,35,12,1,focus,n,12a,12b,,participant_id,NULL
1758558839,5ea96059c7f8c9bb71d4ecdb67ea496e,PennController,27,0,experiment,NULL,PennController,29,_Header_,End,1758557816251,prolific_id,60d26e7cd9f0761e4d12b9f8,a,35,12,1,focus,n,12a,12b,,participant_id,NULL
1758558839,5ea96059c7f8c9bb71d4ecdb67ea496e,PennController,27,0,experiment,NULL,EyeTracker,tracker,calibration,76,1758557820296,prolific_id,60d26e7cd9f0761e4d12b9f8,a,35,12,1,focus,n,12a,12b,,participant_id,NULL
1758558839,5ea96059c7f8c9bb71d4ecdb67ea496e,PennController,27,0,experiment,NULL,EyeTracker,tracker,Filename,httpsfarmpcibexnetpzCPVqO/e48687db-1afc-905a-9709-fabcc6e4dfe4,1758557834321,prolific_id,60d26e7cd9f0761e4d12b9f8,a,35,12,1,focus,n,12a,12b,,participant_id,NULL
1758558839,5ea96059c7f8c9bb71d4ecdb67ea496e,PennController,27,0,experiment,NULL,Canvas,right_canvas,Print,NA,1758557832987,prolific_id,60d26e7cd9f0761e4d12b9f8,a,35,12,1,focus,n,12a,12b,,participant_id,NULL
1758558839,5ea96059c7f8c9bb71d4ecdb67ea496e,PennController,27,0,experiment,NULL,Key,r0,PressedKey, ,1758557826321,prolific_id,60d26e7cd9f0761e4d12b9f8,a,35,12,1,focus,n,12a,12b,,participant_id,Wait success
1758558839,5ea96059c7f8c9bb71d4ecdb67ea496e,PennController,27,0,experiment,NULL,Key,r1,PressedKey, ,1758557826815,prolific_id,60d26e7cd9f0761e4d12b9f8,a,35,12,1,focus,n,12a,12b,,participant_id,Wait success
1758558839,5ea96059c7f8c9bb71d4ecdb67ea496e,PennController,27,0,experiment,NULL,Key,r2,PressedKey, ,1758557827282,prolific_id,60d26e7cd9f0761e4d12b9f8,a,35,12,1,focus,n,12a,12b,,participant_id,Wait success
1758558839,5ea96059c7f8c9bb71d4ecdb67ea496e,PennController,27,0,experiment,NULL,Key,r3,PressedKey, ,1758557827669,prolific_id,60d26e7cd9f0761e4d12b9f8,a,35,12,1,focus,n,12a,12b,,participant_id,Wait success
1758558839,5ea96059c7f8c9bb71d4ecdb67ea496e,PennController,27,0,experiment,NULL,Key,r4,PressedKey, ,1758557828230,prolific_id,60d26e7cd9f0761e4d12b9f8,a,35,12,1,focus,n,12a,12b,,participant_id,Wait success
1758558839,5ea96059c7f8c9bb71d4ecdb67ea496e,PennController,27,0,experiment,NULL,Key,r5,PressedKey, ,1758557828783,prolific_id,60d26e7cd9f0761e4d12b9f8,a,35,12,1,focus,n,12a,12b,,participant_id,Wait success
1758558839,5ea96059c7f8c9bb71d4ecdb67ea496e,PennController,27,0,experiment,NULL,Key,r6,PressedKey, ,1758557829432,prolific_id,60d26e7cd9f0761e4d12b9f8,a,35,12,1,focus,n,12a,12b,,participant_id,Wait success
1758558839,5ea96059c7f8c9bb71d4ecdb67ea496e,PennController,27,0,experiment,NULL,Key,r7,PressedKey, ,1758557829958,prolific_id,60d26e7cd9f0761e4d12b9f8,a,35,12,1,focus,n,12a,12b,,participant_id,Wait success
1758558839,5ea96059c7f8c9bb71d4ecdb67ea496e,PennController,27,0,experiment,NULL,Selector,choice_selector,Selection,left_canvas,1758557834320,prolific_id,60d26e7cd9f0761e4d12b9f8,a,35,12,1,focus,n,12a,12b,,participant_id,left_canvas;right_canvas
1758558839,5ea96059c7f8c9bb71d4ecdb67ea496e,PennController,27,0,experiment,NULL,PennController,29,_Trial_,End,1758557834323,prolific_id,60d26e7cd9f0761e4d12b9f8,a,35,12,1,focus,n,12a,12b,,participant_id,NULL
1758558839,5ea96059c7f8c9bb71d4ecdb67ea496e,PennController,28,0,experiment,NULL,PennController,30,_Trial_,Start,1758557834324,prolific_id,60d26e7cd9f0761e4d12b9f8,a,97,29,2,self-directed-x,n,munkás,földműves,földműves,participant_id,NULL
1758558839,5ea96059c7f8c9bb71d4ecdb67ea496e,PennController,28,0,experiment,NULL,PennController,30,_Header_,Start,1758557834324,prolific_id,60d26e7cd9f0761e4d12b9f8,a,97,29,2,self-directed-x,n,munkás,földműves,földműves,participant_id,NULL
1758558839,5ea96059c7f8c9bb71d4ecdb67ea496e,PennController,28,0,experiment,NULL,PennController,30,_Header_,End,1758557834324,prolific_id,60d26e7cd9f0761e4d12b9f8,a,97,29,2,self-directed-x,n,munkás,földműves,földműves,participant_id,NULL
1758558839,5ea96059c7f8c9bb71d4ecdb67ea496e,PennController,28,0,experiment,NULL,EyeTracker,tracker,calibration,22,1758557838367,prolific_id,60d26e7cd9f0761e4d12b9f8,a,97,29,2,self-directed-x,n,munkás,földműves,földműves,participant_id,NULL
1758558839,5ea96059c7f8c9bb71d4ecdb67ea496e,PennController,28,0,experiment,NULL,EyeTracker,tracker,calibration,72,1758557885782,prolific_id,60d26e7cd9f0761e4d12b9f8,a,97,29,2,self-directed-x,n,munkás,földműves,földműves,participant_id,Last attempt
1758558839,5ea96059c7f8c9bb71d4ecdb67ea496e,PennController,28,0,experiment,NULL,EyeTracker,tracker,Filename,httpsfarmpcibexnetpzCPVqO/e48687db-1afc-905a-9709-fabcc6e4dfe4,1758557903235,prolific_id,60d26e7cd9f0761e4d12b9f8,a,97,29,2,self-directed-x,n,munkás,földműves,földműves,participant_id,NULL
1758558839,5ea96059c7f8c9bb71d4ecdb67ea496e,PennController,28,0,experiment,NULL,Canvas,right_canvas,Print,NA,1758557901639,prolific_id,60d26e7cd9f0761e4d12b9f8,a,97,29,2,self-directed-x,n,munkás,földműves,földműves,participant_id,NULL
1758558839,5ea96059c7f8c9bb71d4ecdb67ea496e,PennController,28,0,experiment,NULL,Key,r0,PressedKey, ,1758557894145,prolific_id,60d26e7cd9f0761e4d12b9f8,a,97,29,2,self-directed-x,n,munkás,földműves,földműves,participant_id,Wait success
1758558839,5ea96059c7f8c9bb71d4ecdb67ea496e,PennController,28,0,experiment,NULL,Key,r1,PressedKey, ,1758557895324,prolific_id,60d26e7cd9f0761e4d12b9f8,a,97,29,2,self-directed-x,n,munkás,földműves,földműves,participant_id,Wait success
1758558839,5ea96059c7f8c9bb71d4ecdb67ea496e,PennController,28,0,experiment,NULL,Key,r2,PressedKey, ,1758557895885,prolific_id,60d26e7cd9f0761e4d12b9f8,a,97,29,2,self-directed-x,n,munkás,földműves,földműves,participant_id,Wait success
1758558839,5ea96059c7f8c9bb71d4ecdb67ea496e,PennController,28,0,experiment,NULL,Key,r3,PressedKey, ,1758557896329,prolific_id,60d26e7cd9f0761e4d12b9f8,a,97,29,2,self-directed-x,n,munkás,földműves,földműves,participant_id,Wait success
1758558839,5ea96059c7f8c9bb71d4ecdb67ea496e,PennController,28,0,experiment,NULL,Key,r4,PressedKey, ,1758557896772,prolific_id,60d26e7cd9f0761e4d12b9f8,a,97,29,2,self-directed-x,n,munkás,földműves,földműves,participant_id,Wait success
1758558839,5ea96059c7f8c9bb71d4ecdb67ea496e,PennController,28,0,experiment,NULL,Key,r5,PressedKey, ,1758557897323,prolific_id,60d26e7cd9f0761e4d12b9f8,a,97,29,2,self-directed-x,n,munkás,földműves,földműves,participant_id,Wait success
1758558839,5ea96059c7f8c9bb71d4ecdb67ea496e,PennController,28,0,experiment,NULL,Key,r7,PressedKey, ,1758557897757,prolific_id,60d26e7cd9f0761e4d12b9f8,a,97,29,2,self-directed-x,n,munkás,földműves,földműves,participant_id,Wait success
1758558839,5ea96059c7f8c9bb71d4ecdb67ea496e,PennController,28,0,experiment,NULL,Key,question,PressedKey, ,1758557899624,prolific_id,60d26e7cd9f0761e4d12b9f8,a,97,29,2,self-directed-x,n,munkás,földműves,földműves,participant_id,Wait success
1758558839,5ea96059c7f8c9bb71d4ecdb67ea496e,PennController,28,0,experiment,NULL,Selector,choice_selector,Selection,right_canvas,1758557903233,prolific_id,60d26e7cd9f0761e4d12b9f8,a,97,29,2,self-directed-x,n,munkás,földműves,földműves,participant_id,left_canvas;right_canvas
1758558839,5ea96059c7f8c9bb71d4ecdb67ea496e,PennController,28,0,experiment,NULL,PennController,30,_Trial_,End,1758557903236,prolific_id,60d26e7cd9f0761e4d12b9f8,a,97,29,2,self-directed-x,n,munkás,földműves,földműves,participant_id,NULL
1758558839,5ea96059c7f8c9bb71d4ecdb67ea496e,PennController,29,0,experiment,NULL,PennController,31,_Trial_,Start,1758557903239,prolific_id,60d26e7cd9f0761e4d12b9f8,a,44,15,1,focus,y,15b,15a,,participant_id,NULL
1758558839,5ea96059c7f8c9bb71d4ecdb67ea496e,PennController,29,0,experiment,NULL,PennController,31,_Header_,Start,1758557903239,prolific_id,60d26e7cd9f0761e4d12b9f8,a,44,15,1,focus,y,15b,15a,,participant_id,NULL
1758558839,5ea96059c7f8c9bb71d4ecdb67ea496e,PennController,29,0,experiment,NULL,PennController,31,_Header_,End,1758557903239,prolific_id,60d26e7cd9f0761e4d12b9f8,a,44,15,1,focus,y,15b,15a,,participant_id,NULL
1758558839,5ea96059c7f8c9bb71d4ecdb67ea496e,PennController,29,0,experiment,NULL,EyeTracker,tracker,calibration,52,1758557907274,prolific_id,60d26e7cd9f0761e4d12b9f8,a,44,15,1,focus,y,15b,15a,,participant_id,NULL
1758558839,5ea96059c7f8c9bb71d4ecdb67ea496e,PennController,29,0,experiment,NULL,EyeTracker,tracker,calibration,68,1758557956131,prolific_id,60d26e7cd9f0761e4d12b9f8,a,44,15,1,focus,y,15b,15a,,participant_id,Last attempt
1758558839,5ea96059c7f8c9bb71d4ecdb67ea496e,PennController,29,0,experiment,NULL,EyeTracker,tracker,Filename,httpsfarmpcibexnetpzCPVqO/e48687db-1afc-905a-9709-fabcc6e4dfe4,1758557978853,prolific_id,60d26e7cd9f0761e4d12b9f8,a,44,15,1,focus,y,15b,15a,,participant_id,NULL
1758558839,5ea96059c7f8c9bb71d4ecdb67ea496e,PennController,29,0,experiment,NULL,Canvas,right_canvas,Print,NA,1758557977295,prolific_id,60d26e7cd9f0761e4d12b9f8,a,44,15,1,focus,y,15b,15a,,participant_id,NULL
1758558839,5ea96059c7f8c9bb71d4ecdb67ea496e,PennController,29,0,experiment,NULL,Key,r0,PressedKey, ,1758557970014,prolific_id,60d26e7cd9f0761e4d12b9f8,a,44,15,1,focus,y,15b,15a,,participant_id,Wait success
1758558839,5ea96059c7f8c9bb71d4ecdb67ea496e,PennController,29,0,experiment,NULL,Key,r1,PressedKey, ,1758557971084,prolific_id,60d26e7cd9f0761e4d12b9f8,a,44,15,1,focus,y,15b,15a,,participant_id,Wait success
1758558839,5ea96059c7f8c9bb71d4ecdb67ea496e,PennController,29,0,experiment,NULL,Key,r2,PressedKey, ,1758557971706,prolific_id,60d26e7cd9f0761e4d12b9f8,a,44,15,1,focus,y,15b,15a,,participant_id,Wait success
1758558839,5ea96059c7f8c9bb71d4ecdb67ea496e,PennController,29,0,experiment,NULL,Key,r3,PressedKey, ,1758557972170,prolific_id,60d26e7cd9f0761e4d12b9f8,a,44,15,1,focus,y,15b,15a,,participant_id,Wait success
1758558839,5ea96059c7f8c9bb71d4ecdb67ea496e,PennController,29,0,experiment,NULL,Key,r4,PressedKey, ,1758557972844,prolific_id,60d26e7cd9f0761e4d12b9f8,a,44,15,1,focus,y,15b,15a,,participant_id,Wait success
1758558839,5ea96059c7f8c9bb71d4ecdb67ea496e,PennController,29,0,experiment,NULL,Key,r5,PressedKey, ,1758557973304,prolific_id,60d26e7cd9f0761e4d12b9f8,a,44,15,1,focus,y,15b,15a,,participant_id,Wait success
1758558839,5ea96059c7f8c9bb71d4ecdb67ea496e,PennController,29,0,experiment,NULL,Key,r6,PressedKey, ,1758557973805,prolific_id,60d26e7cd9f0761e4d12b9f8,a,44,15,1,focus,y,15b,15a,,participant_id,Wait success
1758558839,5ea96059c7f8c9bb71d4ecdb67ea496e,PennController,29,0,experiment,NULL,Key,r7,PressedKey, ,1758557974270,prolific_id,60d26e7cd9f0761e4d12b9f8,a,44,15,1,focus,y,15b,15a,,participant_id,Wait success
1758558839,5ea96059c7f8c9bb71d4ecdb67ea496e,PennController,29,0,experiment,NULL,Selector,choice_selector,Selection,right_canvas,1758557978852,prolific_id,60d26e7cd9f0761e4d12b9f8,a,44,15,1,focus,y,15b,15a,,participant_id,left_canvas;right_canvas
1758558839,5ea96059c7f8c9bb71d4ecdb67ea496e,PennController,29,0,experiment,NULL,PennController,31,_Trial_,End,1758557978854,prolific_id,60d26e7cd9f0761e4d12b9f8,a,44,15,1,focus,y,15b,15a,,participant_id,NULL
1758558839,5ea96059c7f8c9bb71d4ecdb67ea496e,PennController,30,0,experiment,NULL,PennController,32,_Trial_,Start,1758557978857,prolific_id,60d26e7cd9f0761e4d12b9f8,a,88,27,2,other-directed,y,kórboncnok,katona,katona,participant_id,NULL
1758558839,5ea96059c7f8c9bb71d4ecdb67ea496e,PennController,30,0,experiment,NULL,PennController,32,_Header_,Start,1758557978857,prolific_id,60d26e7cd9f0761e4d12b9f8,a,88,27,2,other-directed,y,kórboncnok,katona,katona,participant_id,NULL
1758558839,5ea96059c7f8c9bb71d4ecdb67ea496e,PennController,30,0,experiment,NULL,PennController,32,_Header_,End,1758557978857,prolific_id,60d26e7cd9f0761e4d12b9f8,a,88,27,2,other-directed,y,kórboncnok,katona,katona,participant_id,NULL
1758558839,5ea96059c7f8c9bb71d4ecdb67ea496e,PennController,30,0,experiment,NULL,EyeTracker,tracker,calibration,41,1758557982893,prolific_id,60d26e7cd9f0761e4d12b9f8,a,88,27,2,other-directed,y,kórboncnok,katona,katona,participant_id,NULL
1758558839,5ea96059c7f8c9bb71d4ecdb67ea496e,PennController,30,0,experiment,NULL,EyeTracker,tracker,calibration,74,1758558055934,prolific_id,60d26e7cd9f0761e4d12b9f8,a,88,27,2,other-directed,y,kórboncnok,katona,katona,participant_id,Last attempt
1758558839,5ea96059c7f8c9bb71d4ecdb67ea496e,PennController,30,0,experiment,NULL,EyeTracker,tracker,Filename,httpsfarmpcibexnetpzCPVqO/e48687db-1afc-905a-9709-fabcc6e4dfe4,1758558073706,prolific_id,60d26e7cd9f0761e4d12b9f8,a,88,27,2,other-directed,y,kórboncnok,katona,katona,participant_id,NULL
1758558839,5ea96059c7f8c9bb71d4ecdb67ea496e,PennController,30,0,experiment,NULL,Canvas,right_canvas,Print,NA,1758558072866,prolific_id,60d26e7cd9f0761e4d12b9f8,a,88,27,2,other-directed,y,kórboncnok,katona,katona,participant_id,NULL
1758558839,5ea96059c7f8c9bb71d4ecdb67ea496e,PennController,30,0,experiment,NULL,Key,r0,PressedKey, ,1758558064720,prolific_id,60d26e7cd9f0761e4d12b9f8,a,88,27,2,other-directed,y,kórboncnok,katona,katona,participant_id,Wait success
1758558839,5ea96059c7f8c9bb71d4ecdb67ea496e,PennController,30,0,experiment,NULL,Key,r1,PressedKey, ,1758558065479,prolific_id,60d26e7cd9f0761e4d12b9f8,a,88,27,2,other-directed,y,kórboncnok,katona,katona,participant_id,Wait success
1758558839,5ea96059c7f8c9bb71d4ecdb67ea496e,PennController,30,0,experiment,NULL,Key,r2,PressedKey, ,1758558066192,prolific_id,60d26e7cd9f0761e4d12b9f8,a,88,27,2,other-directed,y,kórboncnok,katona,katona,participant_id,Wait success
1758558839,5ea96059c7f8c9bb71d4ecdb67ea496e,PennController,30,0,experiment,NULL,Key,r3,PressedKey, ,1758558066781,prolific_id,60d26e7cd9f0761e4d12b9f8,a,88,27,2,other-directed,y,kórboncnok,katona,katona,participant_id,Wait success
1758558839,5ea96059c7f8c9bb71d4ecdb67ea496e,PennController,30,0,experiment,NULL,Key,r4,PressedKey, ,1758558067406,prolific_id,60d26e7cd9f0761e4d12b9f8,a,88,27,2,other-directed,y,kórboncnok,katona,katona,participant_id,Wait success
1758558839,5ea96059c7f8c9bb71d4ecdb67ea496e,PennController,30,0,experiment,NULL,Key,r5,PressedKey, ,1758558067991,prolific_id,60d26e7cd9f0761e4d12b9f8,a,88,27,2,other-directed,y,kórboncnok,katona,katona,participant_id,Wait success
1758558839,5ea96059c7f8c9bb71d4ecdb67ea496e,PennController,30,0,experiment,NULL,Key,r7,PressedKey, ,1758558068761,prolific_id,60d26e7cd9f0761e4d12b9f8,a,88,27,2,other-directed,y,kórboncnok,katona,katona,participant_id,Wait success
1758558839,5ea96059c7f8c9bb71d4ecdb67ea496e,PennController,30,0,experiment,NULL,Key,question,PressedKey, ,1758558070862,prolific_id,60d26e7cd9f0761e4d12b9f8,a,88,27,2,other-directed,y,kórboncnok,katona,katona,participant_id,Wait success
1758558839,5ea96059c7f8c9bb71d4ecdb67ea496e,PennController,30,0,experiment,NULL,Selector,choice_selector,Selection,right_canvas,1758558073705,prolific_id,60d26e7cd9f0761e4d12b9f8,a,88,27,2,other-directed,y,kórboncnok,katona,katona,participant_id,left_canvas;right_canvas
1758558839,5ea96059c7f8c9bb71d4ecdb67ea496e,PennController,30,0,experiment,NULL,PennController,32,_Trial_,End,1758558073708,prolific_id,60d26e7cd9f0761e4d12b9f8,a,88,27,2,other-directed,y,kórboncnok,katona,katona,participant_id,NULL
1758558839,5ea96059c7f8c9bb71d4ecdb67ea496e,PennController,31,0,experiment,NULL,PennController,33,_Trial_,Start,1758558073711,prolific_id,60d26e7cd9f0761e4d12b9f8,a,42,14,1,contrastive,y,14b,14a,14b,participant_id,NULL
1758558839,5ea96059c7f8c9bb71d4ecdb67ea496e,PennController,31,0,experiment,NULL,PennController,33,_Header_,Start,1758558073711,prolific_id,60d26e7cd9f0761e4d12b9f8,a,42,14,1,contrastive,y,14b,14a,14b,participant_id,NULL
1758558839,5ea96059c7f8c9bb71d4ecdb67ea496e,PennController,31,0,experiment,NULL,PennController,33,_Header_,End,1758558073711,prolific_id,60d26e7cd9f0761e4d12b9f8,a,42,14,1,contrastive,y,14b,14a,14b,participant_id,NULL
1758558839,5ea96059c7f8c9bb71d4ecdb67ea496e,PennController,31,0,experiment,NULL,EyeTracker,tracker,calibration,63,1758558077723,prolific_id,60d26e7cd9f0761e4d12b9f8,a,42,14,1,contrastive,y,14b,14a,14b,participant_id,NULL
1758558839,5ea96059c7f8c9bb71d4ecdb67ea496e,PennController,31,0,experiment,NULL,EyeTracker,tracker,Filename,httpsfarmpcibexnetpzCPVqO/e48687db-1afc-905a-9709-fabcc6e4dfe4,1758558093849,prolific_id,60d26e7cd9f0761e4d12b9f8,a,42,14,1,contrastive,y,14b,14a,14b,participant_id,NULL
1758558839,5ea96059c7f8c9bb71d4ecdb67ea496e,PennController,31,0,experiment,NULL,Canvas,right_canvas,Print,NA,1758558090972,prolific_id,60d26e7cd9f0761e4d12b9f8,a,42,14,1,contrastive,y,14b,14a,14b,participant_id,NULL
1758558839,5ea96059c7f8c9bb71d4ecdb67ea496e,PennController,31,0,experiment,NULL,Key,r0,PressedKey, ,1758558084531,prolific_id,60d26e7cd9f0761e4d12b9f8,a,42,14,1,contrastive,y,14b,14a,14b,participant_id,Wait success
1758558839,5ea96059c7f8c9bb71d4ecdb67ea496e,PennController,31,0,experiment,NULL,Key,r1,PressedKey, ,1758558085022,prolific_id,60d26e7cd9f0761e4d12b9f8,a,42,14,1,contrastive,y,14b,14a,14b,participant_id,Wait success
1758558839,5ea96059c7f8c9bb71d4ecdb67ea496e,PennController,31,0,experiment,NULL,Key,r2,PressedKey, ,1758558085504,prolific_id,60d26e7cd9f0761e4d12b9f8,a,42,14,1,contrastive,y,14b,14a,14b,participant_id,Wait success
1758558839,5ea96059c7f8c9bb71d4ecdb67ea496e,PennController,31,0,experiment,NULL,Key,r3,PressedKey, ,1758558086045,prolific_id,60d26e7cd9f0761e4d12b9f8,a,42,14,1,contrastive,y,14b,14a,14b,participant_id,Wait success
1758558839,5ea96059c7f8c9bb71d4ecdb67ea496e,PennController,31,0,experiment,NULL,Key,r4,PressedKey, ,1758558086573,prolific_id,60d26e7cd9f0761e4d12b9f8,a,42,14,1,contrastive,y,14b,14a,14b,participant_id,Wait success
1758558839,5ea96059c7f8c9bb71d4ecdb67ea496e,PennController,31,0,experiment,NULL,Key,r5,PressedKey, ,1758558086961,prolific_id,60d26e7cd9f0761e4d12b9f8,a,42,14,1,contrastive,y,14b,14a,14b,participant_id,Wait success
1758558839,5ea96059c7f8c9bb71d4ecdb67ea496e,PennController,31,0,experiment,NULL,Key,r6,PressedKey, ,1758558087417,prolific_id,60d26e7cd9f0761e4d12b9f8,a,42,14,1,contrastive,y,14b,14a,14b,participant_id,Wait success
1758558839,5ea96059c7f8c9bb71d4ecdb67ea496e,PennController,31,0,experiment,NULL,Key,r7,PressedKey, ,1758558087958,prolific_id,60d26e7cd9f0761e4d12b9f8,a,42,14,1,contrastive,y,14b,14a,14b,participant_id,Wait success
1758558839,5ea96059c7f8c9bb71d4ecdb67ea496e,PennController,31,0,experiment,NULL,Selector,choice_selector,Selection,left_canvas,1758558093847,prolific_id,60d26e7cd9f0761e4d12b9f8,a,42,14,1,contrastive,y,14b,14a,14b,participant_id,left_canvas;right_canvas
1758558839,5ea96059c7f8c9bb71d4ecdb67ea496e,PennController,31,0,experiment,NULL,PennController,33,_Trial_,End,1758558093850,prolific_id,60d26e7cd9f0761e4d12b9f8,a,42,14,1,contrastive,y,14b,14a,14b,participant_id,NULL
1758558839,5ea96059c7f8c9bb71d4ecdb67ea496e,PennController,32,0,experiment,NULL,PennController,34,_Trial_,Start,1758558093852,prolific_id,60d26e7cd9f0761e4d12b9f8,a,73,23,2,self-directed-x,n,biztonsági őr,rendőr,rendőr,participant_id,NULL
