results_time,participant_id,group,trial,label,no,item,exp,condition,cb,left,right,target,r1,r2,r3,r4,r5,r6,r7,question_rt,choice_rt,choice,mismatch,chosen_type,dominant,prop_left,prop_right,total_dwell,dwell_left,dwell_right,n_fix_left,n_fix_right,transitions,tff,ffl,fixations_left,fixations_right,fixation_count_total,revisits_left,revisits_right,revisits_total
2025-10-08 11:45:02,59679c319febf80001d53655,a,36,experiment,1,1,1,exclusive,n,1a,1b,1a,559.0,532.0,556.0,696.0,584.0,756.0,906.0,,745.0,left,False,A,left,0.54,0.46,0.76,0.4,0.35,2.0,2.0,3.0,0.0,right,2.0,2.0,4.0,1.0,1.0,2.0
2025-10-08 11:45:02,59679c319febf80001d53655,a,50,experiment,6,2,1,contrastive,y,2b,2a,2b,467.0,544.0,588.0,586.0,466.0,589.0,819.0,,1456.0,left,False,B,right,0.37,0.63,1.45,0.54,0.92,1.0,1.0,1.0,0.0,right,1.0,1.0,2.0,0.0,0.0,0.0
2025-10-08 11:45:02,59679c319febf80001d53655,a,18,experiment,8,3,1,focus,y,3b,3a,,741.0,1083.0,963.0,1085.0,1014.0,1345.0,1202.0,,2035.0,right,False,A,right,0.29,0.71,2.09,0.61,1.48,1.0,1.0,1.0,0.0,right,1.0,1.0,2.0,0.0,0.0,0.0
2025-10-08 11:45:02,59679c319febf80001d53655,a,43,experiment,10,4,1,exclusive,y,4b,4a,4a,548.0,697.0,574.0,559.0,585.0,620.0,641.0,,1028.0,right,False,A,right,0.0,1.0,1.02,0.0,1.02,0.0,1.0,0.0,0.0,right,0.0,1.0,1.0,0.0,0.0,0.0
2025-10-08 11:45:02,59679c319febf80001d53655,a,10,experiment,15,5,1,contrastive,n,5a,5b,5b,1239.0,947.0,1051.0,762.0,845.0,943.0,1159.0,,2306.0,left,True,A,right,0.35,0.65,2.27,0.79,1.48,2.0,2.0,3.0,0.0,right,2.0,2.0,4.0,1.0,1.0,2.0
2025-10-08 11:45:02,59679c319febf80001d53655,a,13,experiment,17,6,1,focus,n,6a,6b,,636.0,745.0,770.0,780.0,787.0,949.0,1263.0,,1010.0,left,False,A,left,0.73,0.27,0.93,0.68,0.25,2.0,1.0,2.0,0.0,left,2.0,1.0,3.0,1.0,0.0,1.0
2025-10-08 11:45:02,59679c319febf80001d53655,a,49,experiment,19,7,1,exclusive,n,7a,7b,7a,548.0,604.0,524.0,521.0,575.0,678.0,510.0,,831.0,left,False,A,left,0.82,0.18,0.81,0.67,0.14,1.0,1.0,1.0,0.0,right,1.0,1.0,2.0,0.0,0.0,0.0
2025-10-08 11:45:02,59679c319febf80001d53655,a,47,experiment,24,8,1,contrastive,y,8b,8a,8b,540.0,578.0,557.0,596.0,520.0,700.0,652.0,,564.0,right,True,A,,,,0.0,0.0,0.0,0.0,1.0,0.0,0.0,right,0.0,1.0,1.0,0.0,0.0,0.0
2025-10-08 11:45:02,59679c319febf80001d53655,a,35,experiment,26,9,1,focus,y,9b,9a,,634.0,553.0,536.0,623.0,551.0,706.0,820.0,,989.0,right,False,A,right,0.17,0.83,0.91,0.15,0.75,1.0,1.0,1.0,0.0,left,1.0,1.0,2.0,0.0,0.0,0.0
2025-10-08 11:45:02,59679c319febf80001d53655,a,45,experiment,28,10,1,exclusive,y,10b,10a,10a,653.0,578.0,593.0,603.0,508.0,715.0,677.0,,807.0,right,False,A,right,0.0,1.0,0.64,0.0,0.64,0.0,1.0,0.0,0.0,right,0.0,1.0,1.0,0.0,0.0,0.0
2025-10-08 11:45:02,59679c319febf80001d53655,a,42,experiment,33,11,1,contrastive,n,11a,11b,11b,625.0,566.0,725.0,602.0,681.0,816.0,744.0,,995.0,left,True,A,left,0.78,0.22,0.97,0.77,0.21,1.0,1.0,1.0,0.0,right,1.0,1.0,2.0,0.0,0.0,0.0
2025-10-08 11:45:02,59679c319febf80001d53655,a,27,experiment,35,12,1,focus,n,12a,12b,,533.0,667.0,551.0,765.0,786.0,894.0,866.0,,1193.0,left,False,A,right,0.42,0.58,1.23,0.52,0.71,1.0,1.0,1.0,0.0,right,1.0,1.0,2.0,0.0,0.0,0.0
2025-10-08 11:45:02,59679c319febf80001d53655,a,38,experiment,37,13,1,exclusive,n,13a,13b,13a,621.0,587.0,542.0,606.0,658.0,648.0,864.0,,902.0,left,False,A,right,0.33,0.67,0.77,0.26,0.52,2.0,2.0,3.0,0.0,right,2.0,2.0,4.0,1.0,1.0,2.0
2025-10-08 11:45:02,59679c319febf80001d53655,a,31,experiment,42,14,1,contrastive,y,14b,14a,14b,1126.0,595.0,682.0,695.0,629.0,841.0,871.0,,6493.0,right,True,A,right,0.48,0.52,6.46,3.11,3.35,9.0,7.0,14.0,0.0,left,9.0,7.0,16.0,8.0,6.0,14.0
2025-10-08 11:45:02,59679c319febf80001d53655,a,29,experiment,44,15,1,focus,y,15b,15a,,541.0,689.0,642.0,728.0,710.0,831.0,834.0,,649.0,right,False,A,right,0.0,1.0,0.7,0.0,0.7,0.0,1.0,0.0,0.0,right,0.0,1.0,1.0,0.0,0.0,0.0
2025-10-08 11:45:02,59679c319febf80001d53655,a,40,experiment,46,16,1,exclusive,y,16b,16a,16a,645.0,570.0,532.0,625.0,652.0,628.0,744.0,,656.0,right,False,A,right,0.49,0.51,0.51,0.25,0.26,1.0,2.0,2.0,0.0,right,1.0,2.0,3.0,0.0,1.0,1.0
2025-10-08 11:45:02,59679c319febf80001d53655,a,34,experiment,51,17,1,contrastive,n,17a,17b,17b,637.0,572.0,673.0,646.0,693.0,705.0,984.0,,823.0,left,True,A,right,0.5,0.5,0.71,0.35,0.35,1.0,1.0,1.0,0.0,right,1.0,1.0,2.0,0.0,0.0,0.0
2025-10-08 11:45:02,59679c319febf80001d53655,a,21,experiment,53,18,1,focus,n,18a,18b,,650.0,681.0,1042.0,832.0,961.0,1063.0,1575.0,,5059.0,left,False,A,right,0.32,0.68,5.15,1.64,3.51,2.0,2.0,3.0,0.0,right,2.0,2.0,4.0,1.0,1.0,2.0
2025-10-06 21:02:00,5b93d1913dca6000012c5fdc,c,33,experiment,3,1,1,contrastive,n,1a,1b,1b,483.0,396.0,428.0,405.0,402.0,612.0,481.0,,1130.0,right,False,B,right,0.0,1.0,1.09,0.0,1.09,0.0,1.0,0.0,0.0,right,0.0,1.0,1.0,0.0,0.0,0.0
2025-10-06 21:02:00,5b93d1913dca6000012c5fdc,c,36,experiment,5,2,1,focus,n,2a,2b,,440.0,342.0,384.0,444.0,431.0,484.0,476.0,,1052.0,left,False,A,left,1.0,0.0,1.04,1.04,0.0,2.0,0.0,0.0,0.0,left,2.0,0.0,2.0,1.0,0.0,1.0
2025-10-06 21:02:00,5b93d1913dca6000012c5fdc,c,34,experiment,7,3,1,exclusive,n,3a,3b,3a,473.0,393.0,366.0,443.0,408.0,888.0,383.0,,1006.0,left,False,A,left,1.0,0.0,0.93,0.93,0.0,1.0,0.0,0.0,0.0,left,1.0,0.0,1.0,0.0,0.0,0.0
2025-10-06 21:02:00,5b93d1913dca6000012c5fdc,c,47,experiment,12,4,1,contrastive,y,4b,4a,4b,449.0,346.0,370.0,468.0,373.0,349.0,434.0,,1091.0,left,False,B,left,0.82,0.18,1.0,0.83,0.18,1.0,1.0,1.0,0.0,right,1.0,1.0,2.0,0.0,0.0,0.0
2025-10-06 21:02:00,5b93d1913dca6000012c5fdc,c,27,experiment,14,5,1,focus,y,5b,5a,,512.0,539.0,449.0,383.0,434.0,397.0,576.0,,1985.0,right,False,A,left,0.71,0.29,1.96,1.39,0.57,2.0,1.0,1.0,0.0,left,2.0,1.0,3.0,1.0,0.0,1.0
2025-10-06 21:02:00,5b93d1913dca6000012c5fdc,c,17,experiment,16,6,1,exclusive,y,6b,6a,6a,502.0,501.0,492.0,481.0,445.0,541.0,456.0,,1475.0,right,False,A,right,0.31,0.69,1.26,0.39,0.87,2.0,2.0,2.0,0.0,right,2.0,2.0,4.0,1.0,1.0,2.0
2025-10-06 21:02:00,5b93d1913dca6000012c5fdc,c,49,experiment,21,7,1,contrastive,n,7a,7b,7b,458.0,311.0,329.0,326.0,301.0,353.0,380.0,,1072.0,right,False,B,right,0.0,1.0,0.69,0.0,0.69,0.0,2.0,0.0,0.0,right,0.0,2.0,2.0,0.0,1.0,1.0
2025-10-06 21:02:00,5b93d1913dca6000012c5fdc,c,12,experiment,23,8,1,focus,n,8a,8b,,748.0,669.0,468.0,504.0,546.0,604.0,505.0,,1880.0,left,False,A,left,0.77,0.23,2.04,1.58,0.46,2.0,1.0,2.0,0.0,left,2.0,1.0,3.0,1.0,0.0,1.0
2025-10-06 21:02:00,5b93d1913dca6000012c5fdc,c,40,experiment,25,9,1,exclusive,n,9a,9b,9a,481.0,397.0,325.0,494.0,417.0,404.0,475.0,,1227.0,left,False,A,left,0.73,0.27,1.16,0.85,0.31,1.0,1.0,1.0,0.0,right,1.0,1.0,2.0,0.0,0.0,0.0
2025-10-06 21:02:00,5b93d1913dca6000012c5fdc,c,43,experiment,30,10,1,contrastive,y,10b,10a,10b,455.0,392.0,351.0,489.0,439.0,413.0,800.0,,1240.0,left,False,B,left,1.0,0.0,1.14,1.14,0.0,1.0,0.0,0.0,0.0,left,1.0,0.0,1.0,0.0,0.0,0.0
2025-10-06 21:02:00,5b93d1913dca6000012c5fdc,c,22,experiment,32,11,1,focus,y,11b,11a,,434.0,549.0,479.0,435.0,492.0,728.0,582.0,,1453.0,right,False,A,right,0.0,1.0,1.4,0.0,1.4,0.0,2.0,0.0,0.0,right,0.0,2.0,2.0,0.0,1.0,1.0
2025-10-06 21:02:00,5b93d1913dca6000012c5fdc,c,10,experiment,34,12,1,exclusive,y,12b,12a,12a,848.0,913.0,1243.0,988.0,1078.0,1042.0,2302.0,,1895.0,right,False,A,right,0.08,0.92,1.82,0.14,1.67,1.0,1.0,1.0,0.0,left,1.0,1.0,2.0,0.0,0.0,0.0
2025-10-06 21:02:00,5b93d1913dca6000012c5fdc,c,20,experiment,39,13,1,contrastive,n,13a,13b,13b,556.0,465.0,464.0,481.0,414.0,397.0,865.0,,5265.0,right,False,B,right,0.23,0.77,4.91,1.14,3.77,3.0,4.0,3.0,0.0,left,3.0,4.0,7.0,2.0,3.0,5.0
2025-10-06 21:02:00,5b93d1913dca6000012c5fdc,c,29,experiment,41,14,1,focus,n,14a,14b,,462.0,381.0,332.0,435.0,435.0,684.0,1017.0,,4251.0,left,False,A,left,0.6,0.4,4.24,2.53,1.71,2.0,2.0,3.0,0.0,right,2.0,2.0,4.0,1.0,1.0,2.0
2025-10-06 21:02:00,5b93d1913dca6000012c5fdc,c,15,experiment,43,15,1,exclusive,n,15a,15b,15a,701.0,553.0,593.0,669.0,523.0,935.0,636.0,,2900.0,left,False,A,left,0.68,0.32,2.48,1.67,0.8,4.0,1.0,2.0,0.0,left,4.0,1.0,5.0,3.0,0.0,3.0
2025-10-06 21:02:00,5b93d1913dca6000012c5fdc,c,25,experiment,48,16,1,contrastive,y,16b,16a,16b,451.0,398.0,458.0,467.0,448.0,445.0,918.0,,1263.0,left,False,B,left,1.0,0.0,1.14,1.14,0.0,3.0,0.0,0.0,0.0,left,3.0,0.0,3.0,2.0,0.0,2.0
2025-10-06 21:02:00,5b93d1913dca6000012c5fdc,c,24,experiment,50,17,1,focus,y,17b,17a,,423.0,393.0,350.0,405.0,1088.0,780.0,1119.0,,1520.0,right,False,A,right,0.36,0.64,1.26,0.46,0.81,1.0,2.0,2.0,0.0,right,1.0,2.0,3.0,0.0,1.0,1.0
2025-10-06 21:02:00,5b93d1913dca6000012c5fdc,c,38,experiment,52,18,1,exclusive,y,18b,18a,18a,448.0,348.0,1172.0,443.0,536.0,494.0,446.0,,6264.0,right,False,A,right,0.47,0.53,6.27,2.96,3.31,2.0,3.0,4.0,0.0,right,2.0,3.0,5.0,1.0,2.0,3.0
2025-10-07 09:30:23,5c5c785fc9735b00010ced0b,a,36,experiment,1,1,1,exclusive,n,1a,1b,1a,483.0,411.0,433.0,511.0,520.0,726.0,651.0,,2434.0,left,False,A,left,0.63,0.37,2.02,1.27,0.75,2.0,4.0,1.0,0.0,right,2.0,4.0,6.0,1.0,3.0,4.0
2025-10-07 09:30:23,5c5c785fc9735b00010ced0b,a,50,experiment,6,2,1,contrastive,y,2b,2a,2b,409.0,368.0,328.0,372.0,338.0,320.0,341.0,,1971.0,left,False,B,left,0.85,0.15,1.8,1.53,0.27,2.0,2.0,3.0,0.0,right,2.0,2.0,4.0,1.0,1.0,2.0
2025-10-07 09:30:23,5c5c785fc9735b00010ced0b,a,18,experiment,8,3,1,focus,y,3b,3a,,426.0,524.0,259.0,334.0,338.0,404.0,463.0,,2060.0,right,False,A,right,0.36,0.64,1.72,0.63,1.1,4.0,3.0,1.0,0.0,left,4.0,3.0,7.0,3.0,2.0,5.0
2025-10-07 09:30:23,5c5c785fc9735b00010ced0b,a,43,experiment,10,4,1,exclusive,y,4b,4a,4a,476.0,364.0,425.0,523.0,443.0,493.0,792.0,,1837.0,right,False,A,right,0.19,0.81,1.74,0.33,1.41,2.0,3.0,3.0,0.0,left,2.0,3.0,5.0,1.0,2.0,3.0
2025-10-07 09:30:23,5c5c785fc9735b00010ced0b,a,10,experiment,15,5,1,contrastive,n,5a,5b,5b,495.0,451.0,453.0,440.0,462.0,491.0,708.0,,1497.0,right,False,B,right,0.16,0.84,1.43,0.23,1.2,2.0,2.0,3.0,0.0,left,2.0,2.0,4.0,1.0,1.0,2.0
2025-10-07 09:30:23,5c5c785fc9735b00010ced0b,a,13,experiment,17,6,1,focus,n,6a,6b,,454.0,368.0,369.0,459.0,464.0,393.0,618.0,,1444.0,left,False,A,left,1.0,0.0,1.47,1.47,0.0,1.0,0.0,0.0,0.0,left,1.0,0.0,1.0,0.0,0.0,0.0
2025-10-07 09:30:23,5c5c785fc9735b00010ced0b,a,49,experiment,19,7,1,exclusive,n,7a,7b,7a,422.0,338.0,334.0,351.0,431.0,452.0,454.0,,1754.0,left,False,A,left,0.88,0.12,1.64,1.45,0.19,1.0,1.0,1.0,0.0,right,1.0,1.0,2.0,0.0,0.0,0.0
2025-10-07 09:30:23,5c5c785fc9735b00010ced0b,a,47,experiment,24,8,1,contrastive,y,8b,8a,8b,409.0,365.0,395.0,390.0,402.0,395.0,403.0,,1985.0,left,False,B,left,0.85,0.15,1.77,1.5,0.27,1.0,1.0,1.0,0.0,right,1.0,1.0,2.0,0.0,0.0,0.0
2025-10-07 09:30:23,5c5c785fc9735b00010ced0b,a,35,experiment,26,9,1,focus,y,9b,9a,,411.0,289.0,576.0,21.0,1232.0,474.0,951.0,,1939.0,right,False,A,right,0.23,0.77,1.94,0.44,1.5,2.0,3.0,4.0,0.0,right,2.0,3.0,5.0,1.0,2.0,3.0
2025-10-07 09:30:23,5c5c785fc9735b00010ced0b,a,45,experiment,28,10,1,exclusive,y,10b,10a,10a,550.0,414.0,464.0,414.0,416.0,410.0,443.0,,2207.0,right,False,A,right,0.09,0.91,2.16,0.19,1.97,1.0,1.0,1.0,0.0,left,1.0,1.0,2.0,0.0,0.0,0.0
2025-10-07 09:30:23,5c5c785fc9735b00010ced0b,a,42,experiment,33,11,1,contrastive,n,11a,11b,11b,484.0,471.0,443.0,463.0,441.0,435.0,623.0,,1488.0,right,False,B,right,0.0,1.0,1.33,0.0,1.33,0.0,1.0,0.0,0.0,right,0.0,1.0,1.0,0.0,0.0,0.0
2025-10-07 09:30:23,5c5c785fc9735b00010ced0b,a,27,experiment,35,12,1,focus,n,12a,12b,,545.0,316.0,313.0,322.0,309.0,335.0,554.0,,1671.0,left,False,A,left,0.87,0.13,1.04,0.9,0.14,3.0,1.0,2.0,0.0,left,3.0,1.0,4.0,2.0,0.0,2.0
2025-10-07 09:30:23,5c5c785fc9735b00010ced0b,a,38,experiment,37,13,1,exclusive,n,13a,13b,13a,475.0,353.0,325.0,591.0,490.0,493.0,630.0,,2297.0,left,False,A,left,0.62,0.38,2.08,1.28,0.8,1.0,1.0,1.0,0.0,right,1.0,1.0,2.0,0.0,0.0,0.0
2025-10-07 09:30:23,5c5c785fc9735b00010ced0b,a,31,experiment,42,14,1,contrastive,y,14b,14a,14b,436.0,362.0,1127.0,464.0,408.0,861.0,895.0,,3260.0,left,False,B,left,0.64,0.36,3.18,2.02,1.16,2.0,2.0,3.0,0.0,right,2.0,2.0,4.0,1.0,1.0,2.0
2025-10-07 09:30:23,5c5c785fc9735b00010ced0b,a,29,experiment,44,15,1,focus,y,15b,15a,,438.0,348.0,384.0,401.0,384.0,453.0,430.0,,1879.0,right,False,A,right,0.23,0.77,1.79,0.41,1.39,1.0,2.0,1.0,0.0,left,1.0,2.0,3.0,0.0,1.0,1.0
2025-10-07 09:30:23,5c5c785fc9735b00010ced0b,a,40,experiment,46,16,1,exclusive,y,16b,16a,16a,429.0,358.0,373.0,414.0,432.0,475.0,762.0,,1904.0,right,False,A,right,0.23,0.77,1.8,0.41,1.39,1.0,1.0,1.0,0.0,left,1.0,1.0,2.0,0.0,0.0,0.0
2025-10-07 09:30:23,5c5c785fc9735b00010ced0b,a,34,experiment,51,17,1,contrastive,n,17a,17b,17b,436.0,355.0,475.0,471.0,452.0,484.0,587.0,,5226.0,right,False,B,right,0.06,0.94,5.21,0.31,4.9,1.0,3.0,2.0,0.0,right,1.0,3.0,4.0,0.0,2.0,2.0
2025-10-07 09:30:23,5c5c785fc9735b00010ced0b,a,21,experiment,53,18,1,focus,n,18a,18b,,490.0,376.0,324.0,379.0,315.0,377.0,545.0,,1921.0,left,False,A,left,0.88,0.12,1.8,1.57,0.22,1.0,1.0,1.0,0.0,right,1.0,1.0,2.0,0.0,0.0,0.0
2025-09-25 17:42:12,5d4fe6a2ffbcf800019d5e54,c,33,experiment,3,1,1,contrastive,n,1a,1b,1b,582.0,526.0,550.0,442.0,597.0,894.0,481.0,,1990.0,right,False,B,right,0.0,1.0,1.42,0.0,1.42,0.0,3.0,0.0,0.0,right,0.0,3.0,3.0,0.0,2.0,2.0
2025-09-25 17:42:12,5d4fe6a2ffbcf800019d5e54,c,36,experiment,5,2,1,focus,n,2a,2b,,483.0,463.0,373.0,441.0,383.0,467.0,491.0,,970.0,left,False,A,left,1.0,0.0,0.78,0.78,0.0,1.0,0.0,0.0,0.0,left,1.0,0.0,1.0,0.0,0.0,0.0
2025-09-25 17:42:12,5d4fe6a2ffbcf800019d5e54,c,34,experiment,7,3,1,exclusive,n,3a,3b,3a,509.0,436.0,345.0,548.0,473.0,828.0,505.0,,1390.0,left,False,A,right,0.4,0.6,1.22,0.49,0.72,2.0,2.0,3.0,0.0,right,2.0,2.0,4.0,1.0,1.0,2.0
2025-09-25 17:42:12,5d4fe6a2ffbcf800019d5e54,c,47,experiment,12,4,1,contrastive,y,4b,4a,4b,1571.0,476.0,399.0,1215.0,477.0,1061.0,1021.0,,1305.0,left,False,B,left,1.0,0.0,1.18,1.18,0.0,2.0,0.0,0.0,0.0,left,2.0,0.0,2.0,1.0,0.0,1.0
2025-09-25 17:42:12,5d4fe6a2ffbcf800019d5e54,c,27,experiment,14,5,1,focus,y,5b,5a,,586.0,471.0,494.0,477.0,423.0,401.0,979.0,,2037.0,right,False,A,left,0.5,0.5,1.87,0.94,0.93,2.0,1.0,2.0,0.0,left,2.0,1.0,3.0,1.0,0.0,1.0
2025-09-25 17:42:12,5d4fe6a2ffbcf800019d5e54,c,17,experiment,16,6,1,exclusive,y,6b,6a,6a,735.0,479.0,371.0,398.0,405.0,1049.0,446.0,,1171.0,right,False,A,right,0.29,0.71,1.17,0.34,0.83,2.0,3.0,3.0,0.0,left,2.0,3.0,5.0,1.0,2.0,3.0
2025-09-25 17:42:12,5d4fe6a2ffbcf800019d5e54,c,49,experiment,21,7,1,contrastive,n,7a,7b,7b,469.0,472.0,457.0,418.0,801.0,528.0,535.0,,1120.0,right,False,B,right,0.0,1.0,1.14,0.0,1.14,0.0,1.0,0.0,0.0,right,0.0,1.0,1.0,0.0,0.0,0.0
2025-09-25 17:42:12,5d4fe6a2ffbcf800019d5e54,c,12,experiment,23,8,1,focus,n,8a,8b,,670.0,467.0,923.0,722.0,662.0,741.0,751.0,,1561.0,left,False,A,right,0.39,0.61,1.35,0.53,0.82,1.0,2.0,1.0,0.0,right,1.0,2.0,3.0,0.0,1.0,1.0
2025-09-25 17:42:12,5d4fe6a2ffbcf800019d5e54,c,40,experiment,25,9,1,exclusive,n,9a,9b,9a,490.0,326.0,373.0,370.0,365.0,647.0,448.0,,1002.0,left,False,A,left,0.64,0.36,0.67,0.43,0.24,1.0,1.0,1.0,0.0,right,1.0,1.0,2.0,0.0,0.0,0.0
2025-09-25 17:42:12,5d4fe6a2ffbcf800019d5e54,c,43,experiment,30,10,1,contrastive,y,10b,10a,10b,537.0,447.0,405.0,468.0,424.0,1791.0,922.0,,1521.0,left,False,B,left,0.92,0.08,1.19,1.09,0.1,3.0,1.0,2.0,0.0,left,3.0,1.0,4.0,2.0,0.0,2.0
2025-09-25 17:42:12,5d4fe6a2ffbcf800019d5e54,c,22,experiment,32,11,1,focus,y,11b,11a,,447.0,409.0,418.0,382.0,354.0,387.0,589.0,,1018.0,right,False,A,right,0.12,0.88,0.84,0.1,0.74,1.0,1.0,1.0,0.0,left,1.0,1.0,2.0,0.0,0.0,0.0
2025-09-25 17:42:12,5d4fe6a2ffbcf800019d5e54,c,10,experiment,34,12,1,exclusive,y,12b,12a,12a,805.0,535.0,520.0,1465.0,585.0,1077.0,1433.0,,1531.0,right,False,A,right,0.43,0.57,1.42,0.61,0.81,1.0,2.0,2.0,0.0,right,1.0,2.0,3.0,0.0,1.0,1.0
2025-09-25 17:42:12,5d4fe6a2ffbcf800019d5e54,c,20,experiment,39,13,1,contrastive,n,13a,13b,13b,561.0,483.0,444.0,432.0,464.0,484.0,1006.0,,5758.0,right,False,B,right,0.15,0.85,5.61,0.81,4.79,2.0,4.0,2.0,0.0,right,2.0,4.0,6.0,1.0,3.0,4.0
2025-09-25 17:42:12,5d4fe6a2ffbcf800019d5e54,c,29,experiment,41,14,1,focus,n,14a,14b,,522.0,475.0,397.0,464.0,428.0,472.0,1544.0,,8841.0,right,False,B,right,0.28,0.72,8.74,2.44,6.3,3.0,3.0,4.0,0.0,right,3.0,3.0,6.0,2.0,2.0,4.0
2025-09-25 17:42:12,5d4fe6a2ffbcf800019d5e54,c,15,experiment,43,15,1,exclusive,n,15a,15b,15a,578.0,388.0,1105.0,451.0,427.0,604.0,610.0,,2161.0,left,False,A,left,0.63,0.37,1.88,1.17,0.7,2.0,3.0,3.0,0.0,left,2.0,3.0,5.0,1.0,2.0,3.0
2025-09-25 17:42:12,5d4fe6a2ffbcf800019d5e54,c,25,experiment,48,16,1,contrastive,y,16b,16a,16b,457.0,391.0,412.0,378.0,377.0,707.0,617.0,,1372.0,left,False,B,left,0.56,0.44,1.22,0.68,0.54,4.0,2.0,4.0,0.0,left,4.0,2.0,6.0,3.0,1.0,4.0
2025-09-25 17:42:12,5d4fe6a2ffbcf800019d5e54,c,24,experiment,50,17,1,focus,y,17b,17a,,413.0,378.0,387.0,397.0,456.0,398.0,961.0,,1549.0,right,False,A,left,0.87,0.13,1.39,1.2,0.19,4.0,2.0,3.0,0.0,left,4.0,2.0,6.0,3.0,1.0,4.0
2025-09-25 17:42:12,5d4fe6a2ffbcf800019d5e54,c,38,experiment,52,18,1,exclusive,y,18b,18a,18a,528.0,398.0,301.0,381.0,404.0,430.0,432.0,,1599.0,right,False,A,right,0.45,0.55,1.5,0.68,0.82,1.0,1.0,1.0,0.0,left,1.0,1.0,2.0,0.0,0.0,0.0
2025-09-22 18:23:58,5dade76a4860f70017f70ec5,c,33,experiment,3,1,1,contrastive,n,1a,1b,1b,291.0,278.0,253.0,314.0,286.0,304.0,325.0,,2573.0,left,True,A,right,0.49,0.51,2.51,1.22,1.29,3.0,2.0,4.0,0.0,left,3.0,2.0,5.0,2.0,1.0,3.0
2025-09-22 18:23:58,5dade76a4860f70017f70ec5,c,36,experiment,5,2,1,focus,n,2a,2b,,270.0,240.0,246.0,246.0,459.0,324.0,302.0,,558.0,left,False,A,left,0.64,0.36,0.56,0.36,0.2,1.0,1.0,1.0,0.0,right,1.0,1.0,2.0,0.0,0.0,0.0
2025-09-22 18:23:58,5dade76a4860f70017f70ec5,c,34,experiment,7,3,1,exclusive,n,3a,3b,3a,326.0,342.0,373.0,636.0,538.0,532.0,370.0,,698.0,left,False,A,left,1.0,0.0,0.63,0.63,0.0,2.0,0.0,0.0,0.0,left,2.0,0.0,2.0,1.0,0.0,1.0
2025-09-22 18:23:58,5dade76a4860f70017f70ec5,c,47,experiment,12,4,1,contrastive,y,4b,4a,4b,300.0,252.0,248.0,193.0,284.0,324.0,282.0,,429.0,right,True,A,right,0.0,1.0,0.39,0.0,0.39,0.0,1.0,0.0,0.0,right,0.0,1.0,1.0,0.0,0.0,0.0
2025-09-22 18:23:58,5dade76a4860f70017f70ec5,c,27,experiment,14,5,1,focus,y,5b,5a,,281.0,211.0,281.0,218.0,232.0,234.0,263.0,,602.0,right,False,A,right,0.0,1.0,0.48,0.0,0.48,0.0,1.0,0.0,0.0,right,0.0,1.0,1.0,0.0,0.0,0.0
2025-09-22 18:23:58,5dade76a4860f70017f70ec5,c,17,experiment,16,6,1,exclusive,y,6b,6a,6a,276.0,293.0,246.0,242.0,312.0,310.0,319.0,,790.0,right,False,A,right,0.0,1.0,0.73,0.0,0.73,0.0,1.0,0.0,0.0,right,0.0,1.0,1.0,0.0,0.0,0.0
2025-09-22 18:23:58,5dade76a4860f70017f70ec5,c,49,experiment,21,7,1,contrastive,n,7a,7b,7b,313.0,326.0,245.0,300.0,449.0,370.0,337.0,,383.0,left,True,A,left,1.0,0.0,0.35,0.35,0.0,1.0,0.0,0.0,0.0,left,1.0,0.0,1.0,0.0,0.0,0.0
2025-09-22 18:23:58,5dade76a4860f70017f70ec5,c,12,experiment,23,8,1,focus,n,8a,8b,,360.0,361.0,324.0,305.0,318.0,303.0,288.0,,783.0,left,False,A,left,1.0,0.0,0.65,0.65,0.0,1.0,0.0,0.0,0.0,left,1.0,0.0,1.0,0.0,0.0,0.0
2025-09-22 18:23:58,5dade76a4860f70017f70ec5,c,40,experiment,25,9,1,exclusive,n,9a,9b,9a,276.0,267.0,208.0,225.0,219.0,422.0,266.0,,647.0,left,False,A,left,0.69,0.31,0.6,0.42,0.18,1.0,1.0,1.0,0.0,right,1.0,1.0,2.0,0.0,0.0,0.0
2025-09-22 18:23:58,5dade76a4860f70017f70ec5,c,43,experiment,30,10,1,contrastive,y,10b,10a,10b,215.0,157.0,146.0,167.0,282.0,206.0,327.0,,617.0,right,True,A,right,0.0,1.0,0.46,0.0,0.46,0.0,2.0,0.0,0.0,right,0.0,2.0,2.0,0.0,1.0,1.0
2025-09-22 18:23:58,5dade76a4860f70017f70ec5,c,22,experiment,32,11,1,focus,y,11b,11a,,326.0,270.0,279.0,289.0,280.0,351.0,412.0,,467.0,right,False,A,right,0.0,1.0,0.41,0.0,0.41,0.0,2.0,0.0,0.0,right,0.0,2.0,2.0,0.0,1.0,1.0
2025-09-22 18:23:58,5dade76a4860f70017f70ec5,c,10,experiment,34,12,1,exclusive,y,12b,12a,12a,513.0,483.0,672.0,542.0,451.0,449.0,592.0,,1062.0,right,False,A,right,0.0,1.0,1.03,0.0,1.03,0.0,1.0,0.0,0.0,right,0.0,1.0,1.0,0.0,0.0,0.0
2025-09-22 18:23:58,5dade76a4860f70017f70ec5,c,20,experiment,39,13,1,contrastive,n,13a,13b,13b,283.0,287.0,356.0,240.0,313.0,300.0,387.0,,1148.0,left,True,A,left,1.0,0.0,1.12,1.12,0.0,2.0,0.0,0.0,0.0,left,2.0,0.0,2.0,1.0,0.0,1.0
2025-09-22 18:23:58,5dade76a4860f70017f70ec5,c,29,experiment,41,14,1,focus,n,14a,14b,,260.0,241.0,381.0,405.0,329.0,305.0,338.0,,915.0,left,False,A,left,0.84,0.16,0.78,0.65,0.13,2.0,1.0,2.0,0.0,left,2.0,1.0,3.0,1.0,0.0,1.0
2025-09-22 18:23:58,5dade76a4860f70017f70ec5,c,15,experiment,43,15,1,exclusive,n,15a,15b,15a,327.0,192.0,304.0,279.0,409.0,349.0,324.0,,413.0,left,False,A,left,1.0,0.0,0.4,0.4,0.0,1.0,0.0,0.0,0.0,left,1.0,0.0,1.0,0.0,0.0,0.0
2025-09-22 18:23:58,5dade76a4860f70017f70ec5,c,25,experiment,48,16,1,contrastive,y,16b,16a,16b,300.0,232.0,248.0,268.0,251.0,261.0,255.0,,977.0,right,True,A,right,0.13,0.87,0.85,0.11,0.74,1.0,2.0,1.0,0.0,right,1.0,2.0,3.0,0.0,1.0,1.0
2025-09-22 18:23:58,5dade76a4860f70017f70ec5,c,24,experiment,50,17,1,focus,y,17b,17a,,316.0,238.0,242.0,214.0,207.0,214.0,336.0,,498.0,right,False,A,right,0.0,1.0,0.58,0.0,0.58,0.0,1.0,0.0,0.0,right,0.0,1.0,1.0,0.0,0.0,0.0
2025-09-22 18:23:58,5dade76a4860f70017f70ec5,c,38,experiment,52,18,1,exclusive,y,18b,18a,18a,302.0,200.0,200.0,226.0,231.0,265.0,323.0,,849.0,right,False,A,right,0.0,1.0,0.82,0.0,0.82,0.0,1.0,0.0,0.0,right,0.0,1.0,1.0,0.0,0.0,0.0
2025-09-25 08:49:56,5e3b29dc87243b34bde5abfa,a,36,experiment,1,1,1,exclusive,n,1a,1b,1a,488.0,238.0,289.0,445.0,236.0,208.0,480.0,,2473.0,right,True,B,left,0.5,0.5,2.48,1.24,1.24,1.0,1.0,1.0,0.0,left,1.0,1.0,2.0,0.0,0.0,0.0
2025-09-25 08:49:56,5e3b29dc87243b34bde5abfa,a,50,experiment,6,2,1,contrastive,y,2b,2a,2b,305.0,182.0,201.0,215.0,200.0,232.0,440.0,,532.0,right,True,A,right,0.0,1.0,0.38,0.0,0.38,0.0,1.0,0.0,0.0,right,0.0,1.0,1.0,0.0,0.0,0.0
2025-09-25 08:49:56,5e3b29dc87243b34bde5abfa,a,18,experiment,8,3,1,focus,y,3b,3a,,597.0,321.0,210.0,390.0,301.0,260.0,172.0,,920.0,left,False,B,left,0.68,0.32,0.9,0.61,0.29,1.0,1.0,1.0,0.0,right,1.0,1.0,2.0,0.0,0.0,0.0
2025-09-25 08:49:56,5e3b29dc87243b34bde5abfa,a,43,experiment,10,4,1,exclusive,y,4b,4a,4a,535.0,244.0,2164.0,321.0,373.0,368.0,419.0,,682.0,left,True,B,left,1.0,0.0,0.65,0.65,0.0,2.0,0.0,0.0,0.0,left,2.0,0.0,2.0,1.0,0.0,1.0
2025-09-25 08:49:56,5e3b29dc87243b34bde5abfa,a,10,experiment,15,5,1,contrastive,n,5a,5b,5b,1106.0,493.0,515.0,379.0,376.0,858.0,579.0,,1649.0,left,True,A,left,0.81,0.19,1.59,1.29,0.3,2.0,1.0,1.0,0.0,right,2.0,1.0,3.0,1.0,0.0,1.0
2025-09-25 08:49:56,5e3b29dc87243b34bde5abfa,a,13,experiment,17,6,1,focus,n,6a,6b,,608.0,512.0,529.0,804.0,445.0,334.0,1121.0,,834.0,left,False,A,left,0.85,0.15,0.68,0.58,0.1,2.0,1.0,1.0,0.0,left,2.0,1.0,3.0,1.0,0.0,1.0
2025-09-25 08:49:56,5e3b29dc87243b34bde5abfa,a,49,experiment,19,7,1,exclusive,n,7a,7b,7a,384.0,234.0,201.0,206.0,324.0,220.0,584.0,,2981.0,right,True,B,right,0.12,0.88,2.51,0.31,2.2,2.0,3.0,2.0,0.0,right,2.0,3.0,5.0,1.0,2.0,3.0
2025-09-25 08:49:56,5e3b29dc87243b34bde5abfa,a,47,experiment,24,8,1,contrastive,y,8b,8a,8b,287.0,226.0,246.0,210.0,327.0,313.0,345.0,,1892.0,right,True,A,right,0.22,0.78,1.72,0.38,1.34,1.0,1.0,1.0,0.0,left,1.0,1.0,2.0,0.0,0.0,0.0
2025-09-25 08:49:56,5e3b29dc87243b34bde5abfa,a,35,experiment,26,9,1,focus,y,9b,9a,,439.0,319.0,288.0,608.0,217.0,439.0,460.0,,464.0,left,False,B,left,1.0,0.0,0.43,0.43,0.0,2.0,0.0,0.0,0.0,left,2.0,0.0,2.0,1.0,0.0,1.0
2025-09-25 08:49:56,5e3b29dc87243b34bde5abfa,a,45,experiment,28,10,1,exclusive,y,10b,10a,10a,520.0,227.0,184.0,398.0,294.0,732.0,304.0,,858.0,right,False,A,right,0.19,0.81,0.74,0.14,0.61,1.0,1.0,1.0,0.0,left,1.0,1.0,2.0,0.0,0.0,0.0
2025-09-25 08:49:56,5e3b29dc87243b34bde5abfa,a,42,experiment,33,11,1,contrastive,n,11a,11b,11b,1555.0,326.0,1744.0,368.0,248.0,629.0,424.0,,1168.0,left,True,A,left,0.56,0.44,0.53,0.3,0.23,2.0,2.0,3.0,0.0,right,2.0,2.0,4.0,1.0,1.0,2.0
2025-09-25 08:49:56,5e3b29dc87243b34bde5abfa,a,27,experiment,35,12,1,focus,n,12a,12b,,554.0,434.0,451.0,699.0,305.0,732.0,409.0,,982.0,left,False,A,left,0.86,0.14,1.0,0.87,0.14,2.0,1.0,2.0,0.0,left,2.0,1.0,3.0,1.0,0.0,1.0
2025-09-25 08:49:56,5e3b29dc87243b34bde5abfa,a,38,experiment,37,13,1,exclusive,n,13a,13b,13a,600.0,290.0,209.0,234.0,900.0,471.0,353.0,,770.0,right,True,B,right,0.0,1.0,0.76,0.0,0.76,0.0,1.0,0.0,0.0,right,0.0,1.0,1.0,0.0,0.0,0.0
2025-09-25 08:49:56,5e3b29dc87243b34bde5abfa,a,31,experiment,42,14,1,contrastive,y,14b,14a,14b,493.0,324.0,218.0,790.0,372.0,370.0,620.0,,3077.0,left,False,B,left,0.58,0.42,3.07,1.77,1.3,2.0,2.0,3.0,0.0,right,2.0,2.0,4.0,1.0,1.0,2.0
2025-09-25 08:49:56,5e3b29dc87243b34bde5abfa,a,29,experiment,44,15,1,focus,y,15b,15a,,510.0,266.0,288.0,312.0,345.0,335.0,554.0,,847.0,left,False,B,left,1.0,0.0,0.84,0.84,0.0,1.0,0.0,0.0,0.0,left,1.0,0.0,1.0,0.0,0.0,0.0
2025-09-25 08:49:56,5e3b29dc87243b34bde5abfa,a,40,experiment,46,16,1,exclusive,y,16b,16a,16a,464.0,182.0,386.0,296.0,230.0,418.0,298.0,,940.0,right,False,A,right,0.0,1.0,0.78,0.0,0.78,0.0,1.0,0.0,0.0,right,0.0,1.0,1.0,0.0,0.0,0.0
2025-09-25 08:49:56,5e3b29dc87243b34bde5abfa,a,34,experiment,51,17,1,contrastive,n,17a,17b,17b,671.0,428.0,393.0,354.0,309.0,560.0,443.0,,742.0,left,True,A,left,0.8,0.2,0.51,0.41,0.1,1.0,1.0,1.0,0.0,right,1.0,1.0,2.0,0.0,0.0,0.0
2025-09-25 08:49:56,5e3b29dc87243b34bde5abfa,a,21,experiment,53,18,1,focus,n,18a,18b,,509.0,291.0,341.0,360.0,327.0,369.0,464.0,,905.0,right,False,B,right,0.0,1.0,0.89,0.0,0.89,0.0,1.0,0.0,0.0,right,0.0,1.0,1.0,0.0,0.0,0.0
2025-09-29 12:25:35,5ee75f3d1a88450293a38aeb,b,34,experiment,2,1,1,focus,y,1b,1a,,331.0,370.0,230.0,166.0,402.0,345.0,335.0,,644.0,right,False,A,right,0.0,1.0,0.46,0.0,0.46,0.0,1.0,0.0,0.0,right,0.0,1.0,1.0,0.0,0.0,0.0
2025-09-29 12:25:35,5ee75f3d1a88450293a38aeb,b,26,experiment,4,2,1,exclusive,y,2b,2a,2a,376.0,273.0,261.0,306.0,425.0,331.0,407.0,,557.0,right,False,A,right,0.0,1.0,0.48,0.0,0.48,0.0,1.0,0.0,0.0,right,0.0,1.0,1.0,0.0,0.0,0.0
2025-09-29 12:25:35,5ee75f3d1a88450293a38aeb,b,49,experiment,9,3,1,contrastive,n,3a,3b,3b,316.0,200.0,160.0,110.0,339.0,517.0,382.0,,519.0,left,True,A,left,1.0,0.0,0.53,0.53,0.0,1.0,0.0,0.0,0.0,left,1.0,0.0,1.0,0.0,0.0,0.0
2025-09-29 12:25:35,5ee75f3d1a88450293a38aeb,b,25,experiment,11,4,1,focus,n,4a,4b,,380.0,254.0,240.0,656.0,447.0,480.0,575.0,,591.0,left,False,A,left,1.0,0.0,0.52,0.52,0.0,1.0,0.0,0.0,0.0,left,1.0,0.0,1.0,0.0,0.0,0.0
2025-09-29 12:25:35,5ee75f3d1a88450293a38aeb,b,13,experiment,13,5,1,exclusive,n,5a,5b,5a,248.0,183.0,165.0,125.0,428.0,376.0,445.0,,2534.0,left,False,A,left,1.0,0.0,2.45,2.45,0.0,1.0,0.0,0.0,0.0,left,1.0,0.0,1.0,0.0,0.0,0.0
2025-09-29 12:25:35,5ee75f3d1a88450293a38aeb,b,15,experiment,18,6,1,contrastive,y,6b,6a,6b,255.0,184.0,168.0,154.0,158.0,325.0,317.0,,687.0,right,True,A,left,0.61,0.39,0.54,0.33,0.21,1.0,2.0,1.0,0.0,left,1.0,2.0,3.0,0.0,1.0,1.0
2025-09-29 12:25:35,5ee75f3d1a88450293a38aeb,b,37,experiment,20,7,1,focus,y,7b,7a,,379.0,276.0,384.0,359.0,372.0,591.0,361.0,,500.0,right,False,A,right,0.0,1.0,0.46,0.0,0.46,0.0,1.0,0.0,0.0,right,0.0,1.0,1.0,0.0,0.0,0.0
2025-09-29 12:25:35,5ee75f3d1a88450293a38aeb,b,17,experiment,22,8,1,exclusive,y,8b,8a,8a,415.0,264.0,211.0,278.0,379.0,358.0,384.0,,616.0,right,False,A,right,0.0,1.0,0.44,0.0,0.44,0.0,1.0,0.0,0.0,right,0.0,1.0,1.0,0.0,0.0,0.0
2025-09-29 12:25:35,5ee75f3d1a88450293a38aeb,b,12,experiment,27,9,1,contrastive,n,9a,9b,9b,354.0,238.0,183.0,356.0,312.0,285.0,426.0,,606.0,left,True,A,left,0.72,0.28,0.52,0.37,0.15,1.0,1.0,1.0,0.0,right,1.0,1.0,2.0,0.0,0.0,0.0
2025-09-29 12:25:35,5ee75f3d1a88450293a38aeb,b,21,experiment,29,10,1,focus,n,10a,10b,,346.0,227.0,188.0,389.0,380.0,418.0,394.0,,565.0,left,False,A,left,1.0,0.0,0.48,0.48,0.0,1.0,0.0,0.0,0.0,left,1.0,0.0,1.0,0.0,0.0,0.0
2025-09-29 12:25:35,5ee75f3d1a88450293a38aeb,b,39,experiment,31,11,1,exclusive,n,11a,11b,11a,426.0,272.0,287.0,373.0,383.0,351.0,422.0,,1024.0,left,False,A,left,1.0,0.0,0.85,0.85,0.0,1.0,0.0,0.0,0.0,left,1.0,0.0,1.0,0.0,0.0,0.0
2025-09-29 12:25:35,5ee75f3d1a88450293a38aeb,b,41,experiment,36,12,1,contrastive,y,12b,12a,12b,236.0,170.0,141.0,132.0,449.0,640.0,521.0,,550.0,right,True,A,right,0.0,1.0,0.52,0.0,0.52,0.0,1.0,0.0,0.0,right,0.0,1.0,1.0,0.0,0.0,0.0
2025-09-29 12:25:35,5ee75f3d1a88450293a38aeb,b,14,experiment,38,13,1,focus,y,13b,13a,,285.0,191.0,172.0,175.0,383.0,352.0,407.0,,831.0,right,False,A,right,0.22,0.78,0.8,0.18,0.62,1.0,1.0,1.0,0.0,left,1.0,1.0,2.0,0.0,0.0,0.0
2025-09-29 12:25:35,5ee75f3d1a88450293a38aeb,b,29,experiment,40,14,1,exclusive,y,14b,14a,14a,310.0,239.0,204.0,141.0,352.0,374.0,397.0,,501.0,right,False,A,right,0.0,1.0,0.45,0.0,0.45,0.0,1.0,0.0,0.0,right,0.0,1.0,1.0,0.0,0.0,0.0
2025-09-29 12:25:35,5ee75f3d1a88450293a38aeb,b,46,experiment,45,15,1,contrastive,n,15a,15b,15b,328.0,245.0,182.0,358.0,322.0,356.0,425.0,,649.0,left,True,A,left,1.0,0.0,0.39,0.39,0.0,1.0,0.0,0.0,0.0,left,1.0,0.0,1.0,0.0,0.0,0.0
2025-09-29 12:25:35,5ee75f3d1a88450293a38aeb,b,18,experiment,47,16,1,focus,n,16a,16b,,315.0,203.0,158.0,147.0,131.0,345.0,836.0,,811.0,left,False,A,left,1.0,0.0,0.7,0.7,0.0,1.0,0.0,0.0,0.0,left,1.0,0.0,1.0,0.0,0.0,0.0
2025-09-29 12:25:35,5ee75f3d1a88450293a38aeb,b,23,experiment,49,17,1,exclusive,n,17a,17b,17a,267.0,216.0,154.0,177.0,304.0,350.0,316.0,,504.0,left,False,A,left,1.0,0.0,0.46,0.46,0.0,1.0,0.0,0.0,0.0,left,1.0,0.0,1.0,0.0,0.0,0.0
2025-09-29 12:25:35,5ee75f3d1a88450293a38aeb,b,43,experiment,54,18,1,contrastive,y,18b,18a,18b,303.0,213.0,147.0,149.0,375.0,315.0,368.0,,476.0,right,True,A,right,0.0,1.0,0.43,0.0,0.43,0.0,1.0,0.0,0.0,right,0.0,1.0,1.0,0.0,0.0,0.0
2025-09-29 11:58:01,5f3013e31c8a690aacb02c31,a,36,experiment,1,1,1,exclusive,n,1a,1b,1a,249.0,417.0,419.0,727.0,468.0,681.0,684.0,,2007.0,left,False,A,left,0.89,0.11,1.89,1.69,0.2,5.0,1.0,2.0,0.0,left,5.0,1.0,6.0,4.0,0.0,4.0
2025-09-29 11:58:01,5f3013e31c8a690aacb02c31,a,50,experiment,6,2,1,contrastive,y,2b,2a,2b,295.0,318.0,331.0,296.0,306.0,255.0,351.0,,1900.0,left,False,B,left,0.88,0.12,1.83,1.61,0.23,1.0,1.0,1.0,0.0,right,1.0,1.0,2.0,0.0,0.0,0.0
2025-09-29 11:58:01,5f3013e31c8a690aacb02c31,a,18,experiment,8,3,1,focus,y,3b,3a,,568.0,654.0,575.0,721.0,683.0,832.0,648.0,,2168.0,right,False,A,right,0.0,1.0,2.12,0.0,2.12,0.0,2.0,0.0,0.0,right,0.0,2.0,2.0,0.0,1.0,1.0
2025-09-29 11:58:01,5f3013e31c8a690aacb02c31,a,43,experiment,10,4,1,exclusive,y,4b,4a,4a,495.0,361.0,518.0,411.0,418.0,389.0,513.0,,1448.0,right,False,A,right,0.0,1.0,1.3,0.0,1.3,0.0,2.0,0.0,0.0,right,0.0,2.0,2.0,0.0,1.0,1.0
2025-09-29 11:58:01,5f3013e31c8a690aacb02c31,a,10,experiment,15,5,1,contrastive,n,5a,5b,5b,701.0,505.0,714.0,684.0,484.0,487.0,569.0,,2291.0,right,False,B,right,0.23,0.77,2.19,0.5,1.69,2.0,3.0,3.0,0.0,left,2.0,3.0,5.0,1.0,2.0,3.0
2025-09-29 11:58:01,5f3013e31c8a690aacb02c31,a,13,experiment,17,6,1,focus,n,6a,6b,,757.0,785.0,623.0,587.0,625.0,678.0,616.0,,2020.0,left,False,A,left,0.61,0.39,1.65,1.0,0.65,1.0,2.0,2.0,0.0,right,1.0,2.0,3.0,0.0,1.0,1.0
2025-09-29 11:58:01,5f3013e31c8a690aacb02c31,a,49,experiment,19,7,1,exclusive,n,7a,7b,7a,467.0,401.0,503.0,399.0,389.0,593.0,784.0,,1583.0,left,False,A,left,0.85,0.15,1.48,1.26,0.23,3.0,1.0,1.0,0.0,right,3.0,1.0,4.0,2.0,0.0,2.0
2025-09-29 11:58:01,5f3013e31c8a690aacb02c31,a,47,experiment,24,8,1,contrastive,y,8b,8a,8b,631.0,475.0,808.0,336.0,354.0,380.0,689.0,,1994.0,left,False,B,left,0.88,0.12,1.82,1.6,0.23,2.0,1.0,1.0,0.0,right,2.0,1.0,3.0,1.0,0.0,1.0
2025-09-29 11:58:01,5f3013e31c8a690aacb02c31,a,35,experiment,26,9,1,focus,y,9b,9a,,450.0,300.0,471.0,576.0,393.0,480.0,1596.0,,1807.0,right,False,A,right,0.12,0.88,1.77,0.21,1.56,1.0,2.0,1.0,0.0,left,1.0,2.0,3.0,0.0,1.0,1.0
2025-09-29 11:58:01,5f3013e31c8a690aacb02c31,a,45,experiment,28,10,1,exclusive,y,10b,10a,10a,217.0,382.0,389.0,378.0,418.0,324.0,410.0,,1336.0,right,False,A,right,0.2,0.8,1.32,0.26,1.06,1.0,1.0,1.0,0.0,left,1.0,1.0,2.0,0.0,0.0,0.0
2025-09-29 11:58:01,5f3013e31c8a690aacb02c31,a,42,experiment,33,11,1,contrastive,n,11a,11b,11b,371.0,306.0,505.0,325.0,462.0,363.0,440.0,,2003.0,right,False,B,right,0.0,1.0,1.75,0.0,1.75,0.0,1.0,0.0,0.0,right,0.0,1.0,1.0,0.0,0.0,0.0
2025-09-29 11:58:01,5f3013e31c8a690aacb02c31,a,27,experiment,35,12,1,focus,n,12a,12b,,308.0,506.0,424.0,597.0,549.0,748.0,726.0,,2159.0,left,False,A,left,0.92,0.08,2.19,2.0,0.18,1.0,1.0,1.0,0.0,right,1.0,1.0,2.0,0.0,0.0,0.0
2025-09-29 11:58:01,5f3013e31c8a690aacb02c31,a,38,experiment,37,13,1,exclusive,n,13a,13b,13a,483.0,364.0,388.0,500.0,446.0,441.0,1578.0,,10095.0,right,True,B,right,0.38,0.62,9.36,3.58,5.77,10.0,6.0,7.0,0.0,left,10.0,6.0,16.0,9.0,5.0,14.0
2025-09-29 11:58:01,5f3013e31c8a690aacb02c31,a,31,experiment,42,14,1,contrastive,y,14b,14a,14b,515.0,661.0,1476.0,843.0,475.0,818.0,1729.0,,2531.0,left,False,B,left,0.55,0.45,2.45,1.35,1.1,2.0,2.0,3.0,0.0,left,2.0,2.0,4.0,1.0,1.0,2.0
2025-09-29 11:58:01,5f3013e31c8a690aacb02c31,a,29,experiment,44,15,1,focus,y,15b,15a,,553.0,645.0,944.0,662.0,598.0,735.0,934.0,,1785.0,right,False,A,right,0.06,0.94,1.8,0.1,1.7,1.0,1.0,1.0,0.0,left,1.0,1.0,2.0,0.0,0.0,0.0
2025-09-29 11:58:01,5f3013e31c8a690aacb02c31,a,40,experiment,46,16,1,exclusive,y,16b,16a,16a,260.0,521.0,517.0,384.0,379.0,360.0,974.0,,2117.0,right,False,A,right,0.46,0.54,2.18,1.0,1.18,2.0,2.0,3.0,0.0,left,2.0,2.0,4.0,1.0,1.0,2.0
2025-09-29 11:58:01,5f3013e31c8a690aacb02c31,a,34,experiment,51,17,1,contrastive,n,17a,17b,17b,482.0,473.0,766.0,795.0,565.0,533.0,5823.0,,2660.0,left,True,A,left,0.94,0.06,2.71,2.55,0.17,3.0,1.0,2.0,0.0,left,3.0,1.0,4.0,2.0,0.0,2.0
2025-09-29 11:58:01,5f3013e31c8a690aacb02c31,a,21,experiment,53,18,1,focus,n,18a,18b,,575.0,526.0,446.0,503.0,431.0,494.0,460.0,,2995.0,right,False,B,right,0.29,0.71,2.9,0.83,2.07,2.0,2.0,1.0,0.0,left,2.0,2.0,4.0,1.0,1.0,2.0
2025-09-25 06:25:58,5f338ba6ea047119dbd6e49e,c,33,experiment,3,1,1,contrastive,n,1a,1b,1b,321.0,272.0,255.0,297.0,264.0,321.0,364.0,,724.0,right,False,B,right,0.0,1.0,0.67,0.0,0.67,0.0,2.0,0.0,0.0,right,0.0,2.0,2.0,0.0,1.0,1.0
2025-09-25 06:25:58,5f338ba6ea047119dbd6e49e,c,36,experiment,5,2,1,focus,n,2a,2b,,339.0,270.0,326.0,315.0,359.0,848.0,434.0,,744.0,left,False,A,left,1.0,0.0,0.71,0.71,0.0,1.0,0.0,0.0,0.0,left,1.0,0.0,1.0,0.0,0.0,0.0
2025-09-25 06:25:58,5f338ba6ea047119dbd6e49e,c,34,experiment,7,3,1,exclusive,n,3a,3b,3a,646.0,608.0,676.0,730.0,458.0,702.0,619.0,,1246.0,left,False,A,left,0.68,0.32,1.24,0.84,0.4,2.0,1.0,2.0,0.0,left,2.0,1.0,3.0,1.0,0.0,1.0
2025-09-25 06:25:58,5f338ba6ea047119dbd6e49e,c,47,experiment,12,4,1,contrastive,y,4b,4a,4b,290.0,278.0,295.0,267.0,254.0,242.0,272.0,,937.0,left,False,B,left,1.0,0.0,0.39,0.39,0.0,1.0,0.0,0.0,0.0,left,1.0,0.0,1.0,0.0,0.0,0.0
2025-09-25 06:25:58,5f338ba6ea047119dbd6e49e,c,27,experiment,14,5,1,focus,y,5b,5a,,445.0,343.0,333.0,359.0,331.0,348.0,490.0,,1206.0,right,False,A,right,0.0,1.0,1.13,0.0,1.13,0.0,1.0,0.0,0.0,right,0.0,1.0,1.0,0.0,0.0,0.0
2025-09-25 06:25:58,5f338ba6ea047119dbd6e49e,c,17,experiment,16,6,1,exclusive,y,6b,6a,6a,407.0,338.0,315.0,316.0,322.0,298.0,336.0,,646.0,right,False,A,right,0.3,0.7,0.41,0.12,0.28,1.0,2.0,1.0,0.0,right,1.0,2.0,3.0,0.0,1.0,1.0
2025-09-25 06:25:58,5f338ba6ea047119dbd6e49e,c,49,experiment,21,7,1,contrastive,n,7a,7b,7b,290.0,214.0,248.0,270.0,266.0,250.0,347.0,,927.0,right,False,B,right,0.35,0.65,0.89,0.31,0.58,1.0,1.0,1.0,0.0,left,1.0,1.0,2.0,0.0,0.0,0.0
2025-09-25 06:25:58,5f338ba6ea047119dbd6e49e,c,12,experiment,23,8,1,focus,n,8a,8b,,525.0,578.0,457.0,585.0,417.0,431.0,577.0,,916.0,left,False,A,left,0.88,0.12,0.85,0.74,0.1,2.0,1.0,2.0,0.0,left,2.0,1.0,3.0,1.0,0.0,1.0
2025-09-25 06:25:58,5f338ba6ea047119dbd6e49e,c,40,experiment,25,9,1,exclusive,n,9a,9b,9a,331.0,353.0,386.0,377.0,455.0,882.0,348.0,,671.0,left,False,A,left,0.57,0.43,0.54,0.31,0.23,1.0,1.0,1.0,0.0,right,1.0,1.0,2.0,0.0,0.0,0.0
2025-09-25 06:25:58,5f338ba6ea047119dbd6e49e,c,43,experiment,30,10,1,contrastive,y,10b,10a,10b,279.0,380.0,556.0,420.0,311.0,326.0,416.0,,870.0,left,False,B,left,1.0,0.0,0.79,0.79,0.0,1.0,0.0,0.0,0.0,left,1.0,0.0,1.0,0.0,0.0,0.0
2025-09-25 06:25:58,5f338ba6ea047119dbd6e49e,c,22,experiment,32,11,1,focus,y,11b,11a,,323.0,237.0,245.0,231.0,248.0,237.0,355.0,,534.0,right,False,A,right,0.0,1.0,0.49,0.0,0.49,0.0,1.0,0.0,0.0,right,0.0,1.0,1.0,0.0,0.0,0.0
2025-09-25 06:25:58,5f338ba6ea047119dbd6e49e,c,10,experiment,34,12,1,exclusive,y,12b,12a,12a,569.0,465.0,897.0,472.0,445.0,711.0,551.0,,711.0,right,False,A,left,1.0,0.0,0.64,0.64,0.0,2.0,0.0,0.0,0.0,left,2.0,0.0,2.0,1.0,0.0,1.0
2025-09-25 06:25:58,5f338ba6ea047119dbd6e49e,c,20,experiment,39,13,1,contrastive,n,13a,13b,13b,653.0,409.0,329.0,309.0,345.0,340.0,619.0,,690.0,right,False,B,right,0.0,1.0,0.3,0.0,0.3,0.0,1.0,0.0,0.0,right,0.0,1.0,1.0,0.0,0.0,0.0
2025-09-25 06:25:58,5f338ba6ea047119dbd6e49e,c,29,experiment,41,14,1,focus,n,14a,14b,,349.0,281.0,292.0,324.0,332.0,342.0,350.0,,5364.0,left,False,A,right,0.45,0.55,5.21,2.32,2.89,4.0,4.0,6.0,0.0,left,4.0,4.0,8.0,3.0,3.0,6.0
2025-09-25 06:25:58,5f338ba6ea047119dbd6e49e,c,15,experiment,43,15,1,exclusive,n,15a,15b,15a,470.0,413.0,398.0,416.0,363.0,418.0,395.0,,1145.0,left,False,A,left,0.5,0.5,1.19,0.6,0.59,2.0,2.0,3.0,0.0,left,2.0,2.0,4.0,1.0,1.0,2.0
2025-09-25 06:25:58,5f338ba6ea047119dbd6e49e,c,25,experiment,48,16,1,contrastive,y,16b,16a,16b,340.0,284.0,301.0,345.0,301.0,313.0,339.0,,1388.0,left,False,B,left,0.92,0.08,1.32,1.22,0.1,1.0,1.0,1.0,0.0,right,1.0,1.0,2.0,0.0,0.0,0.0
2025-09-25 06:25:58,5f338ba6ea047119dbd6e49e,c,24,experiment,50,17,1,focus,y,17b,17a,,318.0,279.0,280.0,265.0,499.0,357.0,373.0,,1228.0,right,False,A,right,0.0,1.0,1.22,0.0,1.22,0.0,1.0,0.0,0.0,right,0.0,1.0,1.0,0.0,0.0,0.0
2025-09-25 06:25:58,5f338ba6ea047119dbd6e49e,c,38,experiment,52,18,1,exclusive,y,18b,18a,18a,277.0,1412.0,2044.0,596.0,688.0,385.0,410.0,,910.0,right,False,A,left,0.81,0.19,0.87,0.71,0.17,1.0,1.0,1.0,0.0,left,1.0,1.0,2.0,0.0,0.0,0.0
2025-10-10 10:19:08,5f3ce934a12769b771503625,c,33,experiment,3,1,1,contrastive,n,1a,1b,1b,853.0,851.0,3717.0,5565.0,961.0,973.0,1211.0,,1811.0,left,True,A,left,0.54,0.46,1.78,0.96,0.82,1.0,2.0,2.0,0.0,right,1.0,2.0,3.0,0.0,1.0,1.0
2025-10-10 10:19:08,5f3ce934a12769b771503625,c,36,experiment,5,2,1,focus,n,2a,2b,,974.0,1560.0,834.0,828.0,716.0,870.0,1570.0,,2085.0,left,False,A,right,0.09,0.91,2.09,0.18,1.91,1.0,2.0,2.0,0.0,right,1.0,2.0,3.0,0.0,1.0,1.0
2025-10-10 10:19:08,5f3ce934a12769b771503625,c,34,experiment,7,3,1,exclusive,n,3a,3b,3a,1293.0,1635.0,1310.0,1568.0,1409.0,1273.0,1155.0,,1647.0,left,False,A,left,1.0,0.0,1.13,1.13,0.0,1.0,0.0,0.0,0.0,left,1.0,0.0,1.0,0.0,0.0,0.0
2025-10-10 10:19:08,5f3ce934a12769b771503625,c,47,experiment,12,4,1,contrastive,y,4b,4a,4b,2037.0,1173.0,898.0,850.0,860.0,811.0,2745.0,,1202.0,right,True,A,right,0.33,0.67,1.05,0.35,0.7,1.0,1.0,1.0,0.0,left,1.0,1.0,2.0,0.0,0.0,0.0
2025-10-10 10:19:08,5f3ce934a12769b771503625,c,27,experiment,14,5,1,focus,y,5b,5a,,634.0,939.0,506.0,592.0,538.0,772.0,704.0,,4605.0,right,False,A,left,0.83,0.17,4.34,3.61,0.72,2.0,1.0,2.0,0.0,left,2.0,1.0,3.0,1.0,0.0,1.0
2025-10-10 10:19:08,5f3ce934a12769b771503625,c,17,experiment,16,6,1,exclusive,y,6b,6a,6a,838.0,832.0,1039.0,824.0,728.0,936.0,1446.0,,1703.0,right,False,A,right,0.16,0.84,1.43,0.22,1.21,1.0,2.0,1.0,0.0,left,1.0,2.0,3.0,0.0,1.0,1.0
2025-10-10 10:19:08,5f3ce934a12769b771503625,c,49,experiment,21,7,1,contrastive,n,7a,7b,7b,1055.0,714.0,804.0,1107.0,617.0,1162.0,1029.0,,1427.0,left,True,A,left,0.88,0.12,1.09,0.96,0.13,2.0,1.0,2.0,0.0,left,2.0,1.0,3.0,1.0,0.0,1.0
2025-10-10 10:19:08,5f3ce934a12769b771503625,c,12,experiment,23,8,1,focus,n,8a,8b,,1002.0,958.0,716.0,1122.0,651.0,690.0,780.0,,2444.0,left,False,A,left,0.69,0.31,1.96,1.35,0.6,9.0,4.0,8.0,0.0,left,9.0,4.0,13.0,8.0,3.0,11.0
2025-10-10 10:19:08,5f3ce934a12769b771503625,c,40,experiment,25,9,1,exclusive,n,9a,9b,9a,1018.0,987.0,800.0,784.0,692.0,737.0,967.0,,1521.0,left,False,A,left,0.62,0.38,1.18,0.72,0.45,3.0,2.0,2.0,0.0,left,3.0,2.0,5.0,2.0,1.0,3.0
2025-10-10 10:19:08,5f3ce934a12769b771503625,c,43,experiment,30,10,1,contrastive,y,10b,10a,10b,1632.0,856.0,1143.0,987.0,942.0,1089.0,1543.0,,1778.0,right,True,A,right,0.0,1.0,1.71,0.0,1.71,0.0,1.0,0.0,0.0,right,0.0,1.0,1.0,0.0,0.0,0.0
2025-10-10 10:19:08,5f3ce934a12769b771503625,c,22,experiment,32,11,1,focus,y,11b,11a,,1201.0,1415.0,614.0,989.0,795.0,960.0,1051.0,,1978.0,right,False,A,right,0.37,0.63,1.46,0.55,0.92,3.0,3.0,3.0,0.0,left,3.0,3.0,6.0,2.0,2.0,4.0
2025-10-10 10:19:08,5f3ce934a12769b771503625,c,10,experiment,34,12,1,exclusive,y,12b,12a,12a,1034.0,1280.0,1028.0,858.0,693.0,1178.0,1009.0,,2992.0,right,False,A,right,0.0,1.0,2.54,0.0,2.54,0.0,5.0,0.0,0.0,right,0.0,5.0,5.0,0.0,4.0,4.0
2025-10-10 10:19:08,5f3ce934a12769b771503625,c,20,experiment,39,13,1,contrastive,n,13a,13b,13b,1105.0,1051.0,1055.0,1175.0,929.0,1022.0,1042.0,,2619.0,left,True,A,left,0.7,0.3,1.92,1.35,0.57,3.0,3.0,3.0,0.0,left,3.0,3.0,6.0,2.0,2.0,4.0
2025-10-10 10:19:08,5f3ce934a12769b771503625,c,29,experiment,41,14,1,focus,n,14a,14b,,632.0,673.0,644.0,822.0,694.0,651.0,987.0,,4995.0,right,False,B,right,0.44,0.56,4.85,2.11,2.74,3.0,4.0,6.0,0.0,right,3.0,4.0,7.0,2.0,3.0,5.0
2025-10-10 10:19:08,5f3ce934a12769b771503625,c,15,experiment,43,15,1,exclusive,n,15a,15b,15a,1089.0,1008.0,1171.0,1131.0,940.0,1068.0,1225.0,,3750.0,left,False,A,right,0.42,0.58,2.91,1.23,1.68,6.0,6.0,4.0,0.0,right,6.0,6.0,12.0,5.0,5.0,10.0
2025-10-10 10:19:08,5f3ce934a12769b771503625,c,25,experiment,48,16,1,contrastive,y,16b,16a,16b,605.0,730.0,622.0,606.0,554.0,736.0,1002.0,,1760.0,right,True,A,left,1.0,0.0,1.66,1.66,0.0,2.0,0.0,0.0,0.0,left,2.0,0.0,2.0,1.0,0.0,1.0
2025-10-10 10:19:08,5f3ce934a12769b771503625,c,24,experiment,50,17,1,focus,y,17b,17a,,892.0,826.0,728.0,1225.0,880.0,816.0,2495.0,,1852.0,right,False,A,right,0.0,1.0,1.75,0.0,1.75,0.0,3.0,0.0,0.0,right,0.0,3.0,3.0,0.0,2.0,2.0
2025-10-10 10:19:08,5f3ce934a12769b771503625,c,38,experiment,52,18,1,exclusive,y,18b,18a,18a,1040.0,1060.0,845.0,965.0,930.0,937.0,1121.0,,2579.0,right,False,A,right,0.0,1.0,2.16,0.0,2.16,0.0,2.0,0.0,0.0,right,0.0,2.0,2.0,0.0,1.0,1.0
2025-09-24 19:43:41,5f4c042383588080d02e61a3,b,34,experiment,2,1,1,focus,y,1b,1a,,355.0,299.0,367.0,349.0,353.0,380.0,482.0,,1271.0,right,False,A,right,0.19,0.81,1.27,0.24,1.03,1.0,1.0,1.0,0.0,right,1.0,1.0,2.0,0.0,0.0,0.0
2025-09-24 19:43:41,5f4c042383588080d02e61a3,b,26,experiment,4,2,1,exclusive,y,2b,2a,2a,350.0,313.0,356.0,351.0,346.0,337.0,581.0,,1789.0,right,False,A,right,0.0,1.0,1.35,0.0,1.35,0.0,2.0,0.0,0.0,right,0.0,2.0,2.0,0.0,1.0,1.0
2025-09-24 19:43:41,5f4c042383588080d02e61a3,b,49,experiment,9,3,1,contrastive,n,3a,3b,3b,388.0,361.0,344.0,361.0,351.0,466.0,3049.0,,2319.0,right,False,B,,,,,,,,,,,,,,,,,
2025-09-24 19:43:41,5f4c042383588080d02e61a3,b,25,experiment,11,4,1,focus,n,4a,4b,,338.0,305.0,323.0,299.0,334.0,374.0,401.0,,1613.0,left,False,A,right,0.47,0.53,1.5,0.71,0.79,3.0,3.0,5.0,0.0,left,3.0,3.0,6.0,2.0,2.0,4.0
2025-09-24 19:43:41,5f4c042383588080d02e61a3,b,13,experiment,13,5,1,exclusive,n,5a,5b,5a,482.0,325.0,352.0,418.0,344.0,361.0,701.0,,2206.0,left,False,A,left,1.0,0.0,2.17,2.17,0.0,2.0,0.0,0.0,0.0,left,2.0,0.0,2.0,1.0,0.0,1.0
2025-09-24 19:43:41,5f4c042383588080d02e61a3,b,15,experiment,18,6,1,contrastive,y,6b,6a,6b,476.0,396.0,309.0,323.0,288.0,348.0,1288.0,,1318.0,left,False,B,left,1.0,0.0,1.32,1.32,0.0,1.0,0.0,0.0,0.0,left,1.0,0.0,1.0,0.0,0.0,0.0
2025-09-24 19:43:41,5f4c042383588080d02e61a3,b,37,experiment,20,7,1,focus,y,7b,7a,,414.0,221.0,389.0,269.0,416.0,551.0,1336.0,,1327.0,right,False,A,right,0.09,0.91,1.28,0.11,1.17,1.0,1.0,1.0,0.0,left,1.0,1.0,2.0,0.0,0.0,0.0
2025-09-24 19:43:41,5f4c042383588080d02e61a3,b,17,experiment,22,8,1,exclusive,y,8b,8a,8a,500.0,286.0,319.0,313.0,388.0,521.0,4109.0,,1586.0,right,False,A,right,0.14,0.86,1.46,0.2,1.25,1.0,1.0,1.0,0.0,left,1.0,1.0,2.0,0.0,0.0,0.0
2025-09-24 19:43:41,5f4c042383588080d02e61a3,b,12,experiment,27,9,1,contrastive,n,9a,9b,9b,553.0,406.0,396.0,460.0,372.0,320.0,494.0,,802.0,right,False,B,right,0.19,0.81,0.59,0.11,0.48,1.0,1.0,1.0,0.0,left,1.0,1.0,2.0,0.0,0.0,0.0
2025-09-24 19:43:41,5f4c042383588080d02e61a3,b,21,experiment,29,10,1,focus,n,10a,10b,,427.0,292.0,337.0,433.0,399.0,399.0,522.0,,1610.0,left,False,A,left,0.9,0.1,1.6,1.43,0.16,2.0,1.0,2.0,0.0,left,2.0,1.0,3.0,1.0,0.0,1.0
2025-09-24 19:43:41,5f4c042383588080d02e61a3,b,39,experiment,31,11,1,exclusive,n,11a,11b,11a,521.0,363.0,332.0,344.0,329.0,331.0,393.0,,3399.0,left,False,A,left,0.84,0.16,3.35,2.82,0.53,4.0,3.0,6.0,0.0,left,4.0,3.0,7.0,3.0,2.0,5.0
2025-09-24 19:43:41,5f4c042383588080d02e61a3,b,41,experiment,36,12,1,contrastive,y,12b,12a,12b,831.0,565.0,409.0,420.0,400.0,461.0,3236.0,,1551.0,left,False,B,left,1.0,0.0,1.54,1.54,0.0,1.0,0.0,0.0,0.0,left,1.0,0.0,1.0,0.0,0.0,0.0
2025-09-24 19:43:41,5f4c042383588080d02e61a3,b,14,experiment,38,13,1,focus,y,13b,13a,,501.0,337.0,362.0,391.0,432.0,509.0,461.0,,1371.0,right,False,A,right,0.0,1.0,0.98,0.0,0.98,0.0,3.0,0.0,0.0,right,0.0,3.0,3.0,0.0,2.0,2.0
2025-09-24 19:43:41,5f4c042383588080d02e61a3,b,29,experiment,40,14,1,exclusive,y,14b,14a,14a,466.0,329.0,330.0,335.0,474.0,494.0,669.0,,1600.0,right,False,A,right,0.0,1.0,1.62,0.0,1.62,0.0,1.0,0.0,0.0,right,0.0,1.0,1.0,0.0,0.0,0.0
2025-09-24 19:43:41,5f4c042383588080d02e61a3,b,46,experiment,45,15,1,contrastive,n,15a,15b,15b,408.0,307.0,366.0,338.0,341.0,373.0,463.0,,1370.0,right,False,B,right,0.16,0.84,1.3,0.21,1.09,1.0,1.0,1.0,0.0,left,1.0,1.0,2.0,0.0,0.0,0.0
2025-09-24 19:43:41,5f4c042383588080d02e61a3,b,18,experiment,47,16,1,focus,n,16a,16b,,305.0,269.0,228.0,315.0,323.0,356.0,411.0,,1071.0,left,False,A,left,1.0,0.0,1.02,1.02,0.0,1.0,0.0,0.0,0.0,left,1.0,0.0,1.0,0.0,0.0,0.0
2025-09-24 19:43:41,5f4c042383588080d02e61a3,b,23,experiment,49,17,1,exclusive,n,17a,17b,17a,446.0,362.0,338.0,384.0,421.0,408.0,1110.0,,2174.0,left,False,A,left,0.89,0.11,1.99,1.78,0.21,3.0,1.0,2.0,0.0,left,3.0,1.0,4.0,2.0,0.0,2.0
2025-09-24 19:43:41,5f4c042383588080d02e61a3,b,43,experiment,54,18,1,contrastive,y,18b,18a,18b,481.0,323.0,361.0,422.0,383.0,642.0,1895.0,,1580.0,left,False,B,left,1.0,0.0,1.59,1.59,0.0,1.0,0.0,0.0,0.0,left,1.0,0.0,1.0,0.0,0.0,0.0
2025-10-10 13:53:09,5f5fc58bfcb0db07c6c64d9e,b,34,experiment,2,1,1,focus,y,1b,1a,,477.0,505.0,375.0,371.0,499.0,558.0,564.0,,11860.0,right,False,A,right,0.49,0.51,11.22,5.46,5.77,16.0,13.0,19.0,0.0,left,16.0,13.0,29.0,15.0,12.0,27.0
2025-10-10 13:53:09,5f5fc58bfcb0db07c6c64d9e,b,26,experiment,4,2,1,exclusive,y,2b,2a,2a,491.0,409.0,324.0,432.0,568.0,758.0,373.0,,1845.0,right,False,A,right,0.31,0.69,1.67,0.52,1.15,1.0,4.0,2.0,0.0,right,1.0,4.0,5.0,0.0,3.0,3.0
2025-10-10 13:53:09,5f5fc58bfcb0db07c6c64d9e,b,49,experiment,9,3,1,contrastive,n,3a,3b,3b,563.0,357.0,352.0,408.0,385.0,816.0,1336.0,,2407.0,right,False,B,left,0.68,0.32,2.29,1.54,0.74,4.0,4.0,7.0,0.0,left,4.0,4.0,8.0,3.0,3.0,6.0
2025-10-10 13:53:09,5f5fc58bfcb0db07c6c64d9e,b,25,experiment,11,4,1,focus,n,4a,4b,,387.0,485.0,388.0,394.0,282.0,409.0,383.0,,2636.0,left,False,A,left,0.59,0.41,2.46,1.45,1.01,3.0,3.0,4.0,0.0,left,3.0,3.0,6.0,2.0,2.0,4.0
2025-10-10 13:53:09,5f5fc58bfcb0db07c6c64d9e,b,13,experiment,13,5,1,exclusive,n,5a,5b,5a,1984.0,803.0,813.0,696.0,560.0,674.0,1102.0,,1789.0,left,False,A,left,0.73,0.27,1.72,1.26,0.46,2.0,2.0,2.0,0.0,left,2.0,2.0,4.0,1.0,1.0,2.0
2025-10-10 13:53:09,5f5fc58bfcb0db07c6c64d9e,b,15,experiment,18,6,1,contrastive,y,6b,6a,6b,475.0,477.0,512.0,504.0,455.0,563.0,534.0,,2812.0,right,True,A,right,0.13,0.87,2.67,0.35,2.32,2.0,5.0,4.0,0.0,right,2.0,5.0,7.0,1.0,4.0,5.0
2025-10-10 13:53:09,5f5fc58bfcb0db07c6c64d9e,b,37,experiment,20,7,1,focus,y,7b,7a,,480.0,450.0,414.0,608.0,520.0,1633.0,4660.0,,2075.0,right,False,A,right,0.06,0.94,1.96,0.12,1.84,1.0,3.0,2.0,0.0,right,1.0,3.0,4.0,0.0,2.0,2.0
2025-10-10 13:53:09,5f5fc58bfcb0db07c6c64d9e,b,17,experiment,22,8,1,exclusive,y,8b,8a,8a,664.0,481.0,447.0,487.0,478.0,667.0,607.0,,957.0,right,False,A,right,0.0,1.0,0.86,0.0,0.86,0.0,1.0,0.0,0.0,right,0.0,1.0,1.0,0.0,0.0,0.0
2025-10-10 13:53:09,5f5fc58bfcb0db07c6c64d9e,b,12,experiment,27,9,1,contrastive,n,9a,9b,9b,985.0,1380.0,2267.0,777.0,485.0,538.0,1168.0,,2932.0,left,True,A,left,0.66,0.34,2.64,1.73,0.91,4.0,3.0,5.0,0.0,right,4.0,3.0,7.0,3.0,2.0,5.0
2025-10-10 13:53:09,5f5fc58bfcb0db07c6c64d9e,b,21,experiment,29,10,1,focus,n,10a,10b,,471.0,511.0,415.0,433.0,395.0,469.0,480.0,,2339.0,left,False,A,left,0.85,0.15,2.07,1.75,0.31,4.0,1.0,2.0,0.0,left,4.0,1.0,5.0,3.0,0.0,3.0
2025-10-10 13:53:09,5f5fc58bfcb0db07c6c64d9e,b,39,experiment,31,11,1,exclusive,n,11a,11b,11a,445.0,355.0,339.0,309.0,342.0,314.0,606.0,,2332.0,left,False,A,left,0.53,0.47,1.97,1.05,0.92,3.0,2.0,4.0,0.0,left,3.0,2.0,5.0,2.0,1.0,3.0
2025-10-10 13:53:09,5f5fc58bfcb0db07c6c64d9e,b,41,experiment,36,12,1,contrastive,y,12b,12a,12b,544.0,360.0,326.0,307.0,265.0,357.0,286.0,,13013.0,right,True,A,right,0.36,0.64,11.94,4.26,7.68,18.0,22.0,28.0,0.0,right,18.0,22.0,40.0,17.0,21.0,38.0
2025-10-10 13:53:09,5f5fc58bfcb0db07c6c64d9e,b,14,experiment,38,13,1,focus,y,13b,13a,,704.0,512.0,464.0,552.0,512.0,529.0,527.0,,2080.0,right,False,A,left,0.62,0.38,1.99,1.23,0.75,2.0,2.0,3.0,0.0,right,2.0,2.0,4.0,1.0,1.0,2.0
2025-10-10 13:53:09,5f5fc58bfcb0db07c6c64d9e,b,29,experiment,40,14,1,exclusive,y,14b,14a,14a,398.0,353.0,290.0,343.0,313.0,302.0,562.0,,10226.0,right,False,A,left,0.52,0.48,9.93,5.16,4.77,13.0,14.0,21.0,0.0,left,13.0,14.0,27.0,12.0,13.0,25.0
2025-10-10 13:53:09,5f5fc58bfcb0db07c6c64d9e,b,46,experiment,45,15,1,contrastive,n,15a,15b,15b,407.0,366.0,437.0,371.0,420.0,645.0,666.0,,2127.0,right,False,B,right,0.06,0.94,1.82,0.12,1.7,1.0,2.0,2.0,0.0,right,1.0,2.0,3.0,0.0,1.0,1.0
2025-10-10 13:53:09,5f5fc58bfcb0db07c6c64d9e,b,18,experiment,47,16,1,focus,n,16a,16b,,478.0,437.0,388.0,405.0,423.0,681.0,511.0,,2022.0,left,False,A,left,0.91,0.09,1.78,1.61,0.17,2.0,1.0,2.0,0.0,left,2.0,1.0,3.0,1.0,0.0,1.0
2025-10-10 13:53:09,5f5fc58bfcb0db07c6c64d9e,b,23,experiment,49,17,1,exclusive,n,17a,17b,17a,551.0,439.0,416.0,469.0,561.0,490.0,568.0,,3372.0,left,False,A,left,0.81,0.19,2.98,2.42,0.56,8.0,3.0,6.0,0.0,left,8.0,3.0,11.0,7.0,2.0,9.0
2025-10-10 13:53:09,5f5fc58bfcb0db07c6c64d9e,b,43,experiment,54,18,1,contrastive,y,18b,18a,18b,937.0,463.0,464.0,431.0,577.0,1017.0,527.0,,8750.0,left,False,B,left,0.53,0.47,8.1,4.29,3.81,11.0,12.0,15.0,0.0,left,11.0,12.0,23.0,10.0,11.0,21.0
2025-10-06 12:30:46,5f9bfbae0517c60102da9e57,a,36,experiment,1,1,1,exclusive,n,1a,1b,1a,386.0,284.0,337.0,403.0,389.0,507.0,498.0,,2111.0,left,False,A,left,0.75,0.25,1.9,1.42,0.48,2.0,2.0,1.0,0.0,right,2.0,2.0,4.0,1.0,1.0,2.0
2025-10-06 12:30:46,5f9bfbae0517c60102da9e57,a,50,experiment,6,2,1,contrastive,y,2b,2a,2b,397.0,524.0,373.0,371.0,291.0,366.0,443.0,,1036.0,left,False,B,left,0.84,0.16,0.77,0.64,0.13,2.0,1.0,1.0,0.0,right,2.0,1.0,3.0,1.0,0.0,1.0
2025-10-06 12:30:46,5f9bfbae0517c60102da9e57,a,18,experiment,8,3,1,focus,y,3b,3a,,513.0,554.0,600.0,516.0,555.0,564.0,852.0,,778.0,right,False,A,right,0.0,1.0,0.78,0.0,0.78,0.0,1.0,0.0,0.0,right,0.0,1.0,1.0,0.0,0.0,0.0
2025-10-06 12:30:46,5f9bfbae0517c60102da9e57,a,43,experiment,10,4,1,exclusive,y,4b,4a,4a,469.0,404.0,510.0,453.0,411.0,440.0,481.0,,1352.0,right,False,A,right,0.0,1.0,0.69,0.0,0.69,0.0,1.0,0.0,0.0,right,0.0,1.0,1.0,0.0,0.0,0.0
2025-10-06 12:30:46,5f9bfbae0517c60102da9e57,a,10,experiment,15,5,1,contrastive,n,5a,5b,5b,1113.0,1042.0,1182.0,1068.0,967.0,988.0,3029.0,,6845.0,right,False,B,right,0.44,0.56,6.56,2.88,3.68,4.0,4.0,5.0,0.0,left,4.0,4.0,8.0,3.0,3.0,6.0
2025-10-06 12:30:46,5f9bfbae0517c60102da9e57,a,13,experiment,17,6,1,focus,n,6a,6b,,632.0,1052.0,899.0,858.0,716.0,687.0,779.0,,1047.0,left,False,A,left,1.0,0.0,0.81,0.81,0.0,2.0,0.0,0.0,0.0,left,2.0,0.0,2.0,1.0,0.0,1.0
2025-10-06 12:30:46,5f9bfbae0517c60102da9e57,a,49,experiment,19,7,1,exclusive,n,7a,7b,7a,438.0,358.0,351.0,400.0,320.0,346.0,465.0,,925.0,left,False,A,left,1.0,0.0,0.95,0.95,0.0,1.0,0.0,0.0,0.0,left,1.0,0.0,1.0,0.0,0.0,0.0
2025-10-06 12:30:46,5f9bfbae0517c60102da9e57,a,47,experiment,24,8,1,contrastive,y,8b,8a,8b,331.0,534.0,237.0,419.0,342.0,374.0,454.0,,893.0,left,False,B,left,1.0,0.0,0.84,0.84,0.0,1.0,0.0,0.0,0.0,left,1.0,0.0,1.0,0.0,0.0,0.0
2025-10-06 12:30:46,5f9bfbae0517c60102da9e57,a,35,experiment,26,9,1,focus,y,9b,9a,,431.0,404.0,366.0,458.0,471.0,438.0,769.0,,1864.0,right,False,A,right,0.26,0.74,1.71,0.45,1.26,3.0,4.0,6.0,0.0,right,3.0,4.0,7.0,2.0,3.0,5.0
2025-10-06 12:30:46,5f9bfbae0517c60102da9e57,a,45,experiment,28,10,1,exclusive,y,10b,10a,10a,385.0,305.0,405.0,376.0,338.0,390.0,417.0,,1269.0,right,False,A,right,0.11,0.89,1.18,0.13,1.05,1.0,1.0,1.0,0.0,left,1.0,1.0,2.0,0.0,0.0,0.0
2025-10-06 12:30:46,5f9bfbae0517c60102da9e57,a,42,experiment,33,11,1,contrastive,n,11a,11b,11b,337.0,295.0,293.0,336.0,410.0,462.0,427.0,,1475.0,left,True,A,right,0.5,0.5,1.23,0.61,0.62,1.0,2.0,1.0,0.0,right,1.0,2.0,3.0,0.0,1.0,1.0
2025-10-06 12:30:46,5f9bfbae0517c60102da9e57,a,27,experiment,35,12,1,focus,n,12a,12b,,502.0,462.0,370.0,430.0,432.0,495.0,539.0,,966.0,left,False,A,left,0.85,0.15,0.96,0.81,0.14,2.0,1.0,2.0,0.0,left,2.0,1.0,3.0,1.0,0.0,1.0
2025-10-06 12:30:46,5f9bfbae0517c60102da9e57,a,38,experiment,37,13,1,exclusive,n,13a,13b,13a,438.0,331.0,396.0,342.0,332.0,465.0,464.0,,737.0,left,False,A,left,1.0,0.0,0.48,0.48,0.0,1.0,0.0,0.0,0.0,left,1.0,0.0,1.0,0.0,0.0,0.0
2025-10-06 12:30:46,5f9bfbae0517c60102da9e57,a,31,experiment,42,14,1,contrastive,y,14b,14a,14b,500.0,431.0,430.0,462.0,475.0,433.0,633.0,,2638.0,left,False,B,left,0.71,0.29,2.57,1.83,0.73,2.0,2.0,3.0,0.0,right,2.0,2.0,4.0,1.0,1.0,2.0
2025-10-06 12:30:46,5f9bfbae0517c60102da9e57,a,29,experiment,44,15,1,focus,y,15b,15a,,465.0,365.0,463.0,606.0,464.0,570.0,658.0,,1209.0,right,False,A,left,0.59,0.41,1.13,0.67,0.47,2.0,1.0,1.0,0.0,left,2.0,1.0,3.0,1.0,0.0,1.0
2025-10-06 12:30:46,5f9bfbae0517c60102da9e57,a,40,experiment,46,16,1,exclusive,y,16b,16a,16a,391.0,389.0,341.0,373.0,390.0,396.0,454.0,,1112.0,right,False,A,right,0.5,0.5,1.03,0.51,0.51,1.0,2.0,1.0,0.0,left,1.0,2.0,3.0,0.0,1.0,1.0
2025-10-06 12:30:46,5f9bfbae0517c60102da9e57,a,34,experiment,51,17,1,contrastive,n,17a,17b,17b,426.0,328.0,386.0,495.0,430.0,463.0,463.0,,993.0,right,False,B,right,0.24,0.76,0.84,0.2,0.64,1.0,2.0,1.0,0.0,left,1.0,2.0,3.0,0.0,1.0,1.0
2025-10-06 12:30:46,5f9bfbae0517c60102da9e57,a,21,experiment,53,18,1,focus,n,18a,18b,,566.0,506.0,465.0,499.0,571.0,932.0,523.0,,877.0,left,False,A,left,1.0,0.0,0.7,0.7,0.0,1.0,0.0,0.0,0.0,left,1.0,0.0,1.0,0.0,0.0,0.0
2025-09-25 21:45:59,60cb4cd6477b2ff7c1adaea4,a,36,experiment,1,1,1,exclusive,n,1a,1b,1a,349.0,310.0,276.0,283.0,300.0,255.0,160.0,,463.0,left,False,A,left,1.0,0.0,0.46,0.46,0.0,1.0,0.0,0.0,0.0,left,1.0,0.0,1.0,0.0,0.0,0.0
2025-09-25 21:45:59,60cb4cd6477b2ff7c1adaea4,a,50,experiment,6,2,1,contrastive,y,2b,2a,2b,415.0,322.0,304.0,289.0,312.0,304.0,264.0,,935.0,right,True,A,right,0.0,1.0,0.85,0.0,0.85,0.0,1.0,0.0,0.0,right,0.0,1.0,1.0,0.0,0.0,0.0
2025-09-25 21:45:59,60cb4cd6477b2ff7c1adaea4,a,18,experiment,8,3,1,focus,y,3b,3a,,478.0,465.0,469.0,454.0,433.0,391.0,485.0,,1143.0,right,False,A,right,0.0,1.0,0.89,0.0,0.89,0.0,1.0,0.0,0.0,right,0.0,1.0,1.0,0.0,0.0,0.0
2025-09-25 21:45:59,60cb4cd6477b2ff7c1adaea4,a,43,experiment,10,4,1,exclusive,y,4b,4a,4a,334.0,316.0,283.0,296.0,239.0,306.0,239.0,,2743.0,left,True,B,left,0.76,0.24,2.45,1.87,0.58,7.0,4.0,6.0,0.0,left,7.0,4.0,11.0,6.0,3.0,9.0
2025-09-25 21:45:59,60cb4cd6477b2ff7c1adaea4,a,10,experiment,15,5,1,contrastive,n,5a,5b,5b,912.0,683.0,611.0,572.0,502.0,510.0,597.0,,1416.0,right,False,B,right,0.21,0.79,1.34,0.28,1.06,1.0,1.0,1.0,0.0,left,1.0,1.0,2.0,0.0,0.0,0.0
2025-09-25 21:45:59,60cb4cd6477b2ff7c1adaea4,a,13,experiment,17,6,1,focus,n,6a,6b,,464.0,422.0,473.0,401.0,472.0,482.0,469.0,,873.0,left,False,A,right,0.25,0.75,0.87,0.22,0.65,2.0,2.0,3.0,0.0,left,2.0,2.0,4.0,1.0,1.0,2.0
2025-09-25 21:45:59,60cb4cd6477b2ff7c1adaea4,a,49,experiment,19,7,1,exclusive,n,7a,7b,7a,438.0,265.0,225.0,216.0,170.0,148.0,366.0,,519.0,right,True,B,right,0.0,1.0,0.49,0.0,0.49,0.0,1.0,0.0,0.0,right,0.0,1.0,1.0,0.0,0.0,0.0
2025-09-25 21:45:59,60cb4cd6477b2ff7c1adaea4,a,47,experiment,24,8,1,contrastive,y,8b,8a,8b,357.0,278.0,258.0,238.0,253.0,181.0,183.0,,2513.0,right,True,A,right,0.34,0.66,2.23,0.75,1.49,4.0,6.0,6.0,0.0,left,4.0,6.0,10.0,3.0,5.0,8.0
2025-09-25 21:45:59,60cb4cd6477b2ff7c1adaea4,a,35,experiment,26,9,1,focus,y,9b,9a,,584.0,300.0,254.0,267.0,270.0,165.0,352.0,,408.0,right,False,A,left,0.79,0.21,0.36,0.29,0.07,1.0,1.0,1.0,0.0,left,1.0,1.0,2.0,0.0,0.0,0.0
2025-09-25 21:45:59,60cb4cd6477b2ff7c1adaea4,a,45,experiment,28,10,1,exclusive,y,10b,10a,10a,288.0,274.0,268.0,159.0,205.0,368.0,321.0,,1894.0,left,True,B,left,1.0,0.0,1.69,1.69,0.0,3.0,0.0,0.0,0.0,left,3.0,0.0,3.0,2.0,0.0,2.0
2025-09-25 21:45:59,60cb4cd6477b2ff7c1adaea4,a,42,experiment,33,11,1,contrastive,n,11a,11b,11b,411.0,106.0,199.0,404.0,288.0,341.0,294.0,,4090.0,left,True,A,left,0.65,0.35,3.71,2.41,1.3,7.0,5.0,8.0,0.0,left,7.0,5.0,12.0,6.0,4.0,10.0
2025-09-25 21:45:59,60cb4cd6477b2ff7c1adaea4,a,27,experiment,35,12,1,focus,n,12a,12b,,380.0,273.0,309.0,291.0,313.0,382.0,370.0,,1189.0,left,False,A,left,0.7,0.3,1.18,0.82,0.36,1.0,1.0,1.0,0.0,right,1.0,1.0,2.0,0.0,0.0,0.0
2025-09-25 21:45:59,60cb4cd6477b2ff7c1adaea4,a,38,experiment,37,13,1,exclusive,n,13a,13b,13a,320.0,271.0,277.0,250.0,256.0,247.0,282.0,,398.0,left,False,A,left,1.0,0.0,0.33,0.33,0.0,1.0,0.0,0.0,0.0,left,1.0,0.0,1.0,0.0,0.0,0.0
2025-09-25 21:45:59,60cb4cd6477b2ff7c1adaea4,a,31,experiment,42,14,1,contrastive,y,14b,14a,14b,511.0,320.0,314.0,345.0,277.0,327.0,317.0,,2818.0,left,False,B,left,0.8,0.2,2.72,2.17,0.55,3.0,1.0,2.0,0.0,left,3.0,1.0,4.0,2.0,0.0,2.0
2025-09-25 21:45:59,60cb4cd6477b2ff7c1adaea4,a,29,experiment,44,15,1,focus,y,15b,15a,,376.0,337.0,327.0,350.0,343.0,413.0,334.0,,779.0,right,False,A,right,0.28,0.72,0.78,0.22,0.56,2.0,2.0,3.0,0.0,right,2.0,2.0,4.0,1.0,1.0,2.0
2025-09-25 21:45:59,60cb4cd6477b2ff7c1adaea4,a,40,experiment,46,16,1,exclusive,y,16b,16a,16a,330.0,252.0,273.0,239.0,248.0,233.0,327.0,,9170.0,right,False,A,left,0.66,0.34,8.59,5.67,2.92,11.0,9.0,14.0,0.0,right,11.0,9.0,20.0,10.0,8.0,18.0
2025-09-25 21:45:59,60cb4cd6477b2ff7c1adaea4,a,34,experiment,51,17,1,contrastive,n,17a,17b,17b,440.0,338.0,391.0,383.0,298.0,318.0,386.0,,3139.0,right,False,B,left,0.71,0.29,2.79,1.99,0.8,3.0,2.0,4.0,0.0,left,3.0,2.0,5.0,2.0,1.0,3.0
2025-09-25 21:45:59,60cb4cd6477b2ff7c1adaea4,a,21,experiment,53,18,1,focus,n,18a,18b,,424.0,423.0,415.0,358.0,394.0,353.0,387.0,,796.0,left,False,A,left,1.0,0.0,0.61,0.61,0.0,2.0,0.0,0.0,0.0,left,2.0,0.0,2.0,1.0,0.0,1.0
2025-10-13 16:49:27,60d0e99c4a61ffe6c5703250,c,33,experiment,3,1,1,contrastive,n,1a,1b,1b,685.0,995.0,1285.0,1147.0,1393.0,1311.0,1366.0,,793.0,left,True,A,right,0.14,0.86,0.9,0.12,0.78,1.0,1.0,1.0,0.0,left,1.0,1.0,2.0,0.0,0.0,0.0
2025-10-13 16:49:27,60d0e99c4a61ffe6c5703250,c,36,experiment,5,2,1,focus,n,2a,2b,,984.0,1457.0,945.0,968.0,850.0,950.0,1256.0,,1144.0,left,False,A,right,0.46,0.54,1.11,0.51,0.6,1.0,1.0,1.0,0.0,right,1.0,1.0,2.0,0.0,0.0,0.0
2025-10-13 16:49:27,60d0e99c4a61ffe6c5703250,c,34,experiment,7,3,1,exclusive,n,3a,3b,3a,748.0,1713.0,674.0,1060.0,857.0,1519.0,1306.0,,853.0,left,False,A,left,0.64,0.36,0.74,0.47,0.27,1.0,1.0,1.0,0.0,right,1.0,1.0,2.0,0.0,0.0,0.0
2025-10-13 16:49:27,60d0e99c4a61ffe6c5703250,c,47,experiment,12,4,1,contrastive,y,4b,4a,4b,937.0,729.0,898.0,821.0,485.0,1046.0,1705.0,,1306.0,right,True,A,left,0.87,0.13,0.88,0.77,0.11,4.0,1.0,2.0,0.0,left,4.0,1.0,5.0,3.0,0.0,3.0
2025-10-13 16:49:27,60d0e99c4a61ffe6c5703250,c,27,experiment,14,5,1,focus,y,5b,5a,,479.0,1133.0,485.0,481.0,1282.0,735.0,1546.0,,1624.0,right,False,A,right,0.13,0.87,1.54,0.2,1.34,1.0,2.0,2.0,0.0,right,1.0,2.0,3.0,0.0,1.0,1.0
2025-10-13 16:49:27,60d0e99c4a61ffe6c5703250,c,17,experiment,16,6,1,exclusive,y,6b,6a,6a,1110.0,845.0,720.0,711.0,637.0,798.0,1031.0,,925.0,right,False,A,right,0.28,0.72,0.86,0.24,0.62,1.0,1.0,1.0,0.0,left,1.0,1.0,2.0,0.0,0.0,0.0
2025-10-13 16:49:27,60d0e99c4a61ffe6c5703250,c,49,experiment,21,7,1,contrastive,n,7a,7b,7b,752.0,500.0,931.0,992.0,597.0,1291.0,1255.0,,2386.0,left,True,A,right,0.11,0.89,2.11,0.23,1.88,1.0,3.0,2.0,0.0,right,1.0,3.0,4.0,0.0,2.0,2.0
2025-10-13 16:49:27,60d0e99c4a61ffe6c5703250,c,12,experiment,23,8,1,focus,n,8a,8b,,2156.0,1883.0,1314.0,1044.0,465.0,781.0,1602.0,,827.0,left,False,A,right,0.22,0.78,0.72,0.16,0.56,1.0,3.0,1.0,0.0,right,1.0,3.0,4.0,0.0,2.0,2.0
2025-10-13 16:49:27,60d0e99c4a61ffe6c5703250,c,40,experiment,25,9,1,exclusive,n,9a,9b,9a,632.0,899.0,1070.0,856.0,691.0,1495.0,1260.0,,1184.0,left,False,A,left,1.0,0.0,0.08,0.08,0.0,1.0,0.0,0.0,0.0,left,1.0,0.0,1.0,0.0,0.0,0.0
2025-10-13 16:49:27,60d0e99c4a61ffe6c5703250,c,43,experiment,30,10,1,contrastive,y,10b,10a,10b,838.0,597.0,835.0,931.0,725.0,1233.0,1338.0,,1033.0,right,True,A,right,0.0,1.0,1.0,0.0,1.0,0.0,1.0,0.0,0.0,right,0.0,1.0,1.0,0.0,0.0,0.0
2025-10-13 16:49:27,60d0e99c4a61ffe6c5703250,c,22,experiment,32,11,1,focus,y,11b,11a,,620.0,1275.0,537.0,1014.0,934.0,1524.0,2618.0,,833.0,right,False,A,left,0.74,0.26,0.53,0.39,0.14,1.0,1.0,1.0,0.0,right,1.0,1.0,2.0,0.0,0.0,0.0
2025-10-13 16:49:27,60d0e99c4a61ffe6c5703250,c,10,experiment,34,12,1,exclusive,y,12b,12a,12a,850.0,1355.0,1392.0,845.0,1355.0,1325.0,1514.0,,803.0,right,False,A,right,0.2,0.8,0.54,0.11,0.43,1.0,2.0,2.0,0.0,right,1.0,2.0,3.0,0.0,1.0,1.0
2025-10-13 16:49:27,60d0e99c4a61ffe6c5703250,c,20,experiment,39,13,1,contrastive,n,13a,13b,13b,542.0,846.0,852.0,967.0,750.0,855.0,1213.0,,895.0,left,True,A,left,0.84,0.16,0.71,0.59,0.11,1.0,1.0,1.0,0.0,right,1.0,1.0,2.0,0.0,0.0,0.0
2025-10-13 16:49:27,60d0e99c4a61ffe6c5703250,c,29,experiment,41,14,1,focus,n,14a,14b,,1440.0,1241.0,1588.0,2042.0,905.0,2196.0,2436.0,,8298.0,left,False,A,right,0.33,0.67,7.84,2.6,5.25,4.0,6.0,6.0,0.0,right,4.0,6.0,10.0,3.0,5.0,8.0
2025-10-13 16:49:27,60d0e99c4a61ffe6c5703250,c,15,experiment,43,15,1,exclusive,n,15a,15b,15a,791.0,1390.0,875.0,1188.0,628.0,1289.0,1613.0,,1101.0,left,False,A,left,0.76,0.24,0.98,0.75,0.23,1.0,1.0,1.0,0.0,left,1.0,1.0,2.0,0.0,0.0,0.0
2025-10-13 16:49:27,60d0e99c4a61ffe6c5703250,c,25,experiment,48,16,1,contrastive,y,16b,16a,16b,725.0,758.0,812.0,735.0,577.0,1027.0,2081.0,,739.0,right,True,A,left,1.0,0.0,0.62,0.62,0.0,2.0,0.0,0.0,0.0,left,2.0,0.0,2.0,1.0,0.0,1.0
2025-10-13 16:49:27,60d0e99c4a61ffe6c5703250,c,24,experiment,50,17,1,focus,y,17b,17a,,868.0,639.0,1235.0,1626.0,818.0,1044.0,2127.0,,828.0,right,False,A,right,0.47,0.53,0.73,0.35,0.39,2.0,2.0,3.0,0.0,left,2.0,2.0,4.0,1.0,1.0,2.0
2025-10-13 16:49:27,60d0e99c4a61ffe6c5703250,c,38,experiment,52,18,1,exclusive,y,18b,18a,18a,452.0,812.0,1014.0,700.0,766.0,1550.0,1642.0,,877.0,right,False,A,right,0.12,0.88,0.86,0.11,0.76,1.0,1.0,1.0,0.0,left,1.0,1.0,2.0,0.0,0.0,0.0
2025-09-22 16:33:59,60d26e7cd9f0761e4d12b9f8,a,36,experiment,1,1,1,exclusive,n,1a,1b,1a,442.0,384.0,381.0,380.0,344.0,386.0,371.0,,567.0,left,False,A,left,1.0,0.0,0.57,0.57,0.0,1.0,0.0,0.0,0.0,left,1.0,0.0,1.0,0.0,0.0,0.0
2025-09-22 16:33:59,60d26e7cd9f0761e4d12b9f8,a,50,experiment,6,2,1,contrastive,y,2b,2a,2b,411.0,351.0,329.0,326.0,335.0,346.0,327.0,,634.0,left,False,B,left,1.0,0.0,0.58,0.58,0.0,1.0,0.0,0.0,0.0,left,1.0,0.0,1.0,0.0,0.0,0.0
2025-09-22 16:33:59,60d26e7cd9f0761e4d12b9f8,a,18,experiment,8,3,1,focus,y,3b,3a,,803.0,792.0,541.0,529.0,452.0,725.0,496.0,,1492.0,left,False,B,left,1.0,0.0,1.16,1.16,0.0,1.0,0.0,0.0,0.0,left,1.0,0.0,1.0,0.0,0.0,0.0
2025-09-22 16:33:59,60d26e7cd9f0761e4d12b9f8,a,43,experiment,10,4,1,exclusive,y,4b,4a,4a,407.0,439.0,399.0,412.0,423.0,414.0,425.0,,746.0,right,False,A,right,0.0,1.0,0.55,0.0,0.55,0.0,2.0,0.0,0.0,right,0.0,2.0,2.0,0.0,1.0,1.0
2025-09-22 16:33:59,60d26e7cd9f0761e4d12b9f8,a,10,experiment,15,5,1,contrastive,n,5a,5b,5b,1077.0,784.0,736.0,921.0,876.0,755.0,847.0,,1083.0,right,False,B,right,0.17,0.83,0.94,0.16,0.77,1.0,1.0,1.0,0.0,left,1.0,1.0,2.0,0.0,0.0,0.0
2025-09-22 16:33:59,60d26e7cd9f0761e4d12b9f8,a,13,experiment,17,6,1,focus,n,6a,6b,,654.0,863.0,734.0,700.0,613.0,707.0,656.0,,849.0,left,False,A,left,1.0,0.0,0.82,0.82,0.0,1.0,0.0,0.0,0.0,left,1.0,0.0,1.0,0.0,0.0,0.0
2025-09-22 16:33:59,60d26e7cd9f0761e4d12b9f8,a,49,experiment,19,7,1,exclusive,n,7a,7b,7a,546.0,468.0,447.0,405.0,391.0,451.0,490.0,,618.0,left,False,A,left,1.0,0.0,0.61,0.61,0.0,1.0,0.0,0.0,0.0,left,1.0,0.0,1.0,0.0,0.0,0.0
2025-09-22 16:33:59,60d26e7cd9f0761e4d12b9f8,a,47,experiment,24,8,1,contrastive,y,8b,8a,8b,462.0,420.0,347.0,474.0,374.0,366.0,358.0,,678.0,left,False,B,left,1.0,0.0,0.63,0.63,0.0,1.0,0.0,0.0,0.0,left,1.0,0.0,1.0,0.0,0.0,0.0
2025-09-22 16:33:59,60d26e7cd9f0761e4d12b9f8,a,35,experiment,26,9,1,focus,y,9b,9a,,467.0,465.0,350.0,366.0,435.0,529.0,403.0,,742.0,right,False,A,right,0.0,1.0,0.73,0.0,0.73,0.0,1.0,0.0,0.0,right,0.0,1.0,1.0,0.0,0.0,0.0
2025-09-22 16:33:59,60d26e7cd9f0761e4d12b9f8,a,45,experiment,28,10,1,exclusive,y,10b,10a,10a,416.0,361.0,337.0,339.0,380.0,369.0,351.0,,957.0,right,False,A,right,0.33,0.67,0.95,0.31,0.64,1.0,1.0,1.0,0.0,left,1.0,1.0,2.0,0.0,0.0,0.0
2025-09-22 16:33:59,60d26e7cd9f0761e4d12b9f8,a,42,experiment,33,11,1,contrastive,n,11a,11b,11b,594.0,539.0,461.0,408.0,399.0,446.0,457.0,,887.0,right,False,B,right,0.24,0.76,0.72,0.17,0.55,1.0,1.0,1.0,0.0,left,1.0,1.0,2.0,0.0,0.0,0.0
2025-09-22 16:33:59,60d26e7cd9f0761e4d12b9f8,a,27,experiment,35,12,1,focus,n,12a,12b,,494.0,467.0,387.0,561.0,553.0,649.0,526.0,,1362.0,left,False,A,left,1.0,0.0,1.35,1.35,0.0,1.0,0.0,0.0,0.0,left,1.0,0.0,1.0,0.0,0.0,0.0
2025-09-22 16:33:59,60d26e7cd9f0761e4d12b9f8,a,38,experiment,37,13,1,exclusive,n,13a,13b,13a,599.0,426.0,339.0,393.0,362.0,381.0,486.0,,766.0,left,False,A,left,1.0,0.0,0.76,0.76,0.0,1.0,0.0,0.0,0.0,left,1.0,0.0,1.0,0.0,0.0,0.0
2025-09-22 16:33:59,60d26e7cd9f0761e4d12b9f8,a,31,experiment,42,14,1,contrastive,y,14b,14a,14b,491.0,482.0,541.0,528.0,388.0,456.0,541.0,,2889.0,left,False,B,left,0.54,0.46,2.71,1.47,1.24,3.0,2.0,3.0,0.0,left,3.0,2.0,5.0,2.0,1.0,3.0
2025-09-22 16:33:59,60d26e7cd9f0761e4d12b9f8,a,29,experiment,44,15,1,focus,y,15b,15a,,1070.0,622.0,464.0,674.0,460.0,501.0,465.0,,1582.0,right,False,A,left,0.65,0.35,1.34,0.87,0.47,1.0,3.0,1.0,0.0,left,1.0,3.0,4.0,0.0,2.0,2.0
2025-09-22 16:33:59,60d26e7cd9f0761e4d12b9f8,a,40,experiment,46,16,1,exclusive,y,16b,16a,16a,571.0,354.0,406.0,432.0,375.0,386.0,553.0,,894.0,right,False,A,right,0.0,1.0,0.75,0.0,0.75,0.0,1.0,0.0,0.0,right,0.0,1.0,1.0,0.0,0.0,0.0
2025-09-22 16:33:59,60d26e7cd9f0761e4d12b9f8,a,34,experiment,51,17,1,contrastive,n,17a,17b,17b,547.0,504.0,554.0,446.0,506.0,460.0,669.0,,1741.0,right,False,B,right,0.0,1.0,1.29,0.0,1.29,0.0,1.0,0.0,0.0,right,0.0,1.0,1.0,0.0,0.0,0.0
2025-09-22 16:33:59,60d26e7cd9f0761e4d12b9f8,a,21,experiment,53,18,1,focus,n,18a,18b,,497.0,608.0,566.0,541.0,747.0,615.0,567.0,,1490.0,left,False,A,left,0.54,0.46,1.48,0.8,0.68,2.0,1.0,2.0,0.0,left,2.0,1.0,3.0,1.0,0.0,1.0
2025-10-10 23:29:57,60ed917a71051ceb8ec151c9,b,34,experiment,2,1,1,focus,y,1b,1a,,363.0,432.0,315.0,346.0,406.0,367.0,315.0,,797.0,right,False,A,right,0.16,0.84,0.67,0.11,0.56,1.0,1.0,1.0,0.0,left,1.0,1.0,2.0,0.0,0.0,0.0
2025-10-10 23:29:57,60ed917a71051ceb8ec151c9,b,26,experiment,4,2,1,exclusive,y,2b,2a,2a,332.0,387.0,310.0,356.0,359.0,433.0,343.0,,1078.0,right,False,A,right,0.11,0.89,1.0,0.11,0.9,1.0,1.0,1.0,0.0,left,1.0,1.0,2.0,0.0,0.0,0.0
2025-10-10 23:29:57,60ed917a71051ceb8ec151c9,b,49,experiment,9,3,1,contrastive,n,3a,3b,3b,385.0,357.0,341.0,376.0,333.0,643.0,366.0,,1803.0,right,False,B,right,0.18,0.82,1.7,0.31,1.39,1.0,2.0,2.0,0.0,right,1.0,2.0,3.0,0.0,1.0,1.0
2025-10-10 23:29:57,60ed917a71051ceb8ec151c9,b,25,experiment,11,4,1,focus,n,4a,4b,,403.0,627.0,378.0,386.0,424.0,466.0,935.0,,1487.0,left,False,A,left,0.73,0.27,1.4,1.02,0.38,2.0,1.0,2.0,0.0,left,2.0,1.0,3.0,1.0,0.0,1.0
2025-10-10 23:29:57,60ed917a71051ceb8ec151c9,b,13,experiment,13,5,1,exclusive,n,5a,5b,5a,710.0,773.0,499.0,495.0,442.0,614.0,1335.0,,2332.0,left,False,A,right,0.42,0.58,2.31,0.97,1.34,3.0,2.0,4.0,0.0,left,3.0,2.0,5.0,2.0,1.0,3.0
2025-10-10 23:29:57,60ed917a71051ceb8ec151c9,b,15,experiment,18,6,1,contrastive,y,6b,6a,6b,513.0,471.0,507.0,447.0,446.0,473.0,485.0,,2491.0,right,True,A,right,0.45,0.55,2.39,1.06,1.32,2.0,2.0,3.0,0.0,left,2.0,2.0,4.0,1.0,1.0,2.0
2025-10-10 23:29:57,60ed917a71051ceb8ec151c9,b,37,experiment,20,7,1,focus,y,7b,7a,,301.0,316.0,324.0,380.0,415.0,725.0,362.0,,1072.0,right,False,A,right,0.13,0.87,0.85,0.11,0.73,1.0,1.0,1.0,0.0,right,1.0,1.0,2.0,0.0,0.0,0.0
2025-10-10 23:29:57,60ed917a71051ceb8ec151c9,b,17,experiment,22,8,1,exclusive,y,8b,8a,8a,525.0,546.0,439.0,488.0,425.0,908.0,695.0,,1553.0,right,False,A,right,0.35,0.65,1.52,0.54,0.98,2.0,2.0,3.0,0.0,left,2.0,2.0,4.0,1.0,1.0,2.0
2025-10-10 23:29:57,60ed917a71051ceb8ec151c9,b,12,experiment,27,9,1,contrastive,n,9a,9b,9b,682.0,652.0,678.0,811.0,856.0,819.0,692.0,,2898.0,left,True,A,left,0.73,0.27,2.87,2.09,0.78,3.0,2.0,4.0,0.0,left,3.0,2.0,5.0,2.0,1.0,3.0
2025-10-10 23:29:57,60ed917a71051ceb8ec151c9,b,21,experiment,29,10,1,focus,n,10a,10b,,719.0,649.0,476.0,599.0,500.0,525.0,781.0,,1578.0,left,False,A,left,0.68,0.32,1.56,1.06,0.5,1.0,1.0,1.0,0.0,right,1.0,1.0,2.0,0.0,0.0,0.0
2025-10-10 23:29:57,60ed917a71051ceb8ec151c9,b,39,experiment,31,11,1,exclusive,n,11a,11b,11a,350.0,348.0,320.0,303.0,295.0,328.0,294.0,,1482.0,left,False,A,left,1.0,0.0,1.45,1.45,0.0,1.0,0.0,0.0,0.0,left,1.0,0.0,1.0,0.0,0.0,0.0
2025-10-10 23:29:57,60ed917a71051ceb8ec151c9,b,41,experiment,36,12,1,contrastive,y,12b,12a,12b,734.0,419.0,428.0,432.0,365.0,617.0,472.0,,1290.0,left,False,B,left,0.87,0.13,1.15,1.0,0.15,1.0,1.0,1.0,0.0,right,1.0,1.0,2.0,0.0,0.0,0.0
2025-10-10 23:29:57,60ed917a71051ceb8ec151c9,b,14,experiment,38,13,1,focus,y,13b,13a,,657.0,478.0,446.0,486.0,469.0,776.0,652.0,,1600.0,right,False,A,right,0.37,0.63,1.6,0.6,1.0,1.0,1.0,1.0,0.0,left,1.0,1.0,2.0,0.0,0.0,0.0
2025-10-10 23:29:57,60ed917a71051ceb8ec151c9,b,29,experiment,40,14,1,exclusive,y,14b,14a,14a,320.0,272.0,364.0,345.0,348.0,385.0,422.0,,1612.0,right,False,A,right,0.29,0.71,1.55,0.45,1.1,1.0,3.0,2.0,0.0,right,1.0,3.0,4.0,0.0,2.0,2.0
2025-10-10 23:29:57,60ed917a71051ceb8ec151c9,b,46,experiment,45,15,1,contrastive,n,15a,15b,15b,353.0,414.0,391.0,393.0,384.0,436.0,539.0,,1683.0,right,False,B,right,0.29,0.71,1.52,0.44,1.08,2.0,2.0,3.0,0.0,left,2.0,2.0,4.0,1.0,1.0,2.0
2025-10-10 23:29:57,60ed917a71051ceb8ec151c9,b,18,experiment,47,16,1,focus,n,16a,16b,,926.0,961.0,801.0,886.0,852.0,804.0,887.0,,2243.0,left,False,A,left,0.64,0.36,2.08,1.34,0.74,1.0,1.0,1.0,0.0,right,1.0,1.0,2.0,0.0,0.0,0.0
2025-10-10 23:29:57,60ed917a71051ceb8ec151c9,b,23,experiment,49,17,1,exclusive,n,17a,17b,17a,409.0,365.0,366.0,389.0,449.0,424.0,967.0,,1900.0,left,False,A,right,0.42,0.58,1.88,0.78,1.1,1.0,2.0,2.0,0.0,right,1.0,2.0,3.0,0.0,1.0,1.0
2025-10-10 23:29:57,60ed917a71051ceb8ec151c9,b,43,experiment,54,18,1,contrastive,y,18b,18a,18b,438.0,360.0,368.0,362.0,396.0,436.0,426.0,,3351.0,left,False,B,left,0.76,0.24,3.26,2.47,0.79,2.0,2.0,2.0,0.0,left,2.0,2.0,4.0,1.0,1.0,2.0
2025-10-07 18:14:26,60fc8070ac259dd44fb94150,c,33,experiment,3,1,1,contrastive,n,1a,1b,1b,700.0,506.0,365.0,363.0,336.0,572.0,474.0,,757.0,left,True,A,left,1.0,0.0,0.72,0.72,0.0,1.0,0.0,0.0,0.0,left,1.0,0.0,1.0,0.0,0.0,0.0
2025-10-07 18:14:26,60fc8070ac259dd44fb94150,c,36,experiment,5,2,1,focus,n,2a,2b,,326.0,523.0,360.0,409.0,329.0,547.0,383.0,,591.0,left,False,A,left,1.0,0.0,0.57,0.57,0.0,1.0,0.0,0.0,0.0,left,1.0,0.0,1.0,0.0,0.0,0.0
2025-10-07 18:14:26,60fc8070ac259dd44fb94150,c,34,experiment,7,3,1,exclusive,n,3a,3b,3a,422.0,312.0,247.0,441.0,373.0,626.0,432.0,,750.0,left,False,A,left,0.84,0.16,0.7,0.59,0.11,2.0,1.0,2.0,0.0,left,2.0,1.0,3.0,1.0,0.0,1.0
2025-10-07 18:14:26,60fc8070ac259dd44fb94150,c,47,experiment,12,4,1,contrastive,y,4b,4a,4b,397.0,263.0,324.0,283.0,415.0,312.0,471.0,,1137.0,right,True,A,right,0.0,1.0,1.15,0.0,1.15,0.0,1.0,0.0,0.0,right,0.0,1.0,1.0,0.0,0.0,0.0
2025-10-07 18:14:26,60fc8070ac259dd44fb94150,c,27,experiment,14,5,1,focus,y,5b,5a,,590.0,353.0,272.0,360.0,267.0,311.0,518.0,,744.0,right,False,A,left,0.81,0.19,0.48,0.39,0.09,2.0,1.0,1.0,0.0,left,2.0,1.0,3.0,1.0,0.0,1.0
2025-10-07 18:14:26,60fc8070ac259dd44fb94150,c,17,experiment,16,6,1,exclusive,y,6b,6a,6a,396.0,510.0,265.0,367.0,274.0,278.0,480.0,,719.0,right,False,A,right,0.0,1.0,0.51,0.0,0.51,0.0,1.0,0.0,0.0,right,0.0,1.0,1.0,0.0,0.0,0.0
2025-10-07 18:14:26,60fc8070ac259dd44fb94150,c,49,experiment,21,7,1,contrastive,n,7a,7b,7b,371.0,231.0,349.0,268.0,334.0,265.0,318.0,,525.0,left,True,A,left,1.0,0.0,0.41,0.41,0.0,1.0,0.0,0.0,0.0,left,1.0,0.0,1.0,0.0,0.0,0.0
2025-10-07 18:14:26,60fc8070ac259dd44fb94150,c,12,experiment,23,8,1,focus,n,8a,8b,,495.0,415.0,369.0,379.0,389.0,372.0,367.0,,944.0,left,False,A,left,0.85,0.15,0.79,0.67,0.12,1.0,1.0,1.0,0.0,right,1.0,1.0,2.0,0.0,0.0,0.0
2025-10-07 18:14:26,60fc8070ac259dd44fb94150,c,40,experiment,25,9,1,exclusive,n,9a,9b,9a,510.0,295.0,440.0,335.0,360.0,802.0,330.0,,672.0,left,False,A,left,0.76,0.24,0.57,0.43,0.14,1.0,1.0,1.0,0.0,right,1.0,1.0,2.0,0.0,0.0,0.0
2025-10-07 18:14:26,60fc8070ac259dd44fb94150,c,43,experiment,30,10,1,contrastive,y,10b,10a,10b,465.0,311.0,322.0,388.0,334.0,497.0,316.0,,737.0,right,True,A,right,0.0,1.0,0.7,0.0,0.7,0.0,1.0,0.0,0.0,right,0.0,1.0,1.0,0.0,0.0,0.0
2025-10-07 18:14:26,60fc8070ac259dd44fb94150,c,22,experiment,32,11,1,focus,y,11b,11a,,580.0,283.0,351.0,394.0,376.0,563.0,445.0,,913.0,right,False,A,right,0.13,0.87,0.81,0.11,0.7,1.0,1.0,1.0,0.0,left,1.0,1.0,2.0,0.0,0.0,0.0
2025-10-07 18:14:26,60fc8070ac259dd44fb94150,c,10,experiment,34,12,1,exclusive,y,12b,12a,12a,485.0,452.0,560.0,592.0,425.0,639.0,569.0,,780.0,right,False,A,right,0.47,0.53,0.63,0.29,0.34,1.0,1.0,1.0,0.0,left,1.0,1.0,2.0,0.0,0.0,0.0
2025-10-07 18:14:26,60fc8070ac259dd44fb94150,c,20,experiment,39,13,1,contrastive,n,13a,13b,13b,421.0,334.0,280.0,504.0,385.0,472.0,756.0,,1448.0,left,True,A,right,0.49,0.51,1.49,0.74,0.75,2.0,1.0,2.0,0.0,left,2.0,1.0,3.0,1.0,0.0,1.0
2025-10-07 18:14:26,60fc8070ac259dd44fb94150,c,29,experiment,41,14,1,focus,n,14a,14b,,439.0,287.0,222.0,498.0,368.0,298.0,610.0,,2779.0,left,False,A,left,0.55,0.45,2.59,1.44,1.16,2.0,3.0,3.0,0.0,right,2.0,3.0,5.0,1.0,2.0,3.0
2025-10-07 18:14:26,60fc8070ac259dd44fb94150,c,15,experiment,43,15,1,exclusive,n,15a,15b,15a,493.0,351.0,398.0,392.0,304.0,617.0,374.0,,821.0,left,False,A,left,1.0,0.0,0.71,0.71,0.0,1.0,0.0,0.0,0.0,left,1.0,0.0,1.0,0.0,0.0,0.0
2025-10-07 18:14:26,60fc8070ac259dd44fb94150,c,25,experiment,48,16,1,contrastive,y,16b,16a,16b,495.0,277.0,243.0,425.0,344.0,331.0,427.0,,3724.0,right,True,A,left,0.72,0.28,3.69,2.65,1.04,3.0,2.0,3.0,0.0,left,3.0,2.0,5.0,2.0,1.0,3.0
2025-10-07 18:14:26,60fc8070ac259dd44fb94150,c,24,experiment,50,17,1,focus,y,17b,17a,,329.0,246.0,479.0,556.0,409.0,466.0,471.0,,697.0,right,False,A,right,0.0,1.0,0.62,0.0,0.62,0.0,2.0,0.0,0.0,right,0.0,2.0,2.0,0.0,1.0,1.0
2025-10-07 18:14:26,60fc8070ac259dd44fb94150,c,38,experiment,52,18,1,exclusive,y,18b,18a,18a,349.0,284.0,409.0,335.0,344.0,293.0,324.0,,753.0,right,False,A,right,0.28,0.72,0.63,0.18,0.45,1.0,1.0,1.0,0.0,left,1.0,1.0,2.0,0.0,0.0,0.0
2025-10-10 12:38:33,60fd4fbf1a3f1446d576e5d4,c,33,experiment,3,1,1,contrastive,n,1a,1b,1b,614.0,426.0,449.0,501.0,667.0,449.0,412.0,,1234.0,right,False,B,right,0.0,1.0,1.23,0.0,1.23,0.0,1.0,0.0,0.0,right,0.0,1.0,1.0,0.0,0.0,0.0
2025-10-10 12:38:33,60fd4fbf1a3f1446d576e5d4,c,36,experiment,5,2,1,focus,n,2a,2b,,553.0,596.0,1006.0,832.0,482.0,1251.0,585.0,,780.0,left,False,A,left,1.0,0.0,0.77,0.77,0.0,1.0,0.0,0.0,0.0,left,1.0,0.0,1.0,0.0,0.0,0.0
2025-10-10 12:38:33,60fd4fbf1a3f1446d576e5d4,c,34,experiment,7,3,1,exclusive,n,3a,3b,3a,655.0,544.0,420.0,534.0,452.0,567.0,469.0,,985.0,left,False,A,left,1.0,0.0,0.98,0.98,0.0,2.0,0.0,0.0,0.0,left,2.0,0.0,2.0,1.0,0.0,1.0
2025-10-10 12:38:33,60fd4fbf1a3f1446d576e5d4,c,47,experiment,12,4,1,contrastive,y,4b,4a,4b,538.0,534.0,801.0,638.0,484.0,772.0,762.0,,1214.0,left,False,B,left,0.85,0.15,1.17,1.0,0.17,2.0,2.0,3.0,0.0,left,2.0,2.0,4.0,1.0,1.0,2.0
2025-10-10 12:38:33,60fd4fbf1a3f1446d576e5d4,c,27,experiment,14,5,1,focus,y,5b,5a,,568.0,585.0,444.0,987.0,477.0,432.0,452.0,,1184.0,right,False,A,right,0.0,1.0,1.16,0.0,1.16,0.0,1.0,0.0,0.0,right,0.0,1.0,1.0,0.0,0.0,0.0
2025-10-10 12:38:33,60fd4fbf1a3f1446d576e5d4,c,17,experiment,16,6,1,exclusive,y,6b,6a,6a,596.0,582.0,447.0,462.0,482.0,646.0,514.0,,1536.0,right,False,A,right,0.31,0.69,1.52,0.47,1.05,1.0,1.0,1.0,0.0,left,1.0,1.0,2.0,0.0,0.0,0.0
2025-10-10 12:38:33,60fd4fbf1a3f1446d576e5d4,c,49,experiment,21,7,1,contrastive,n,7a,7b,7b,583.0,438.0,473.0,513.0,421.0,584.0,432.0,,872.0,right,False,B,right,0.0,1.0,0.84,0.0,0.84,0.0,1.0,0.0,0.0,right,0.0,1.0,1.0,0.0,0.0,0.0
2025-10-10 12:38:33,60fd4fbf1a3f1446d576e5d4,c,12,experiment,23,8,1,focus,n,8a,8b,,465.0,472.0,419.0,376.0,464.0,469.0,417.0,,782.0,left,False,A,left,1.0,0.0,0.74,0.74,0.0,1.0,0.0,0.0,0.0,left,1.0,0.0,1.0,0.0,0.0,0.0
2025-10-10 12:38:33,60fd4fbf1a3f1446d576e5d4,c,40,experiment,25,9,1,exclusive,n,9a,9b,9a,1093.0,680.0,408.0,611.0,470.0,576.0,494.0,,1182.0,left,False,A,left,1.0,0.0,1.13,1.13,0.0,1.0,0.0,0.0,0.0,left,1.0,0.0,1.0,0.0,0.0,0.0
2025-10-10 12:38:33,60fd4fbf1a3f1446d576e5d4,c,43,experiment,30,10,1,contrastive,y,10b,10a,10b,449.0,526.0,615.0,623.0,474.0,468.0,494.0,,1087.0,left,False,B,left,0.84,0.16,0.88,0.73,0.14,2.0,1.0,2.0,0.0,left,2.0,1.0,3.0,1.0,0.0,1.0
2025-10-10 12:38:33,60fd4fbf1a3f1446d576e5d4,c,22,experiment,32,11,1,focus,y,11b,11a,,539.0,515.0,435.0,396.0,465.0,893.0,673.0,,856.0,right,False,A,left,0.82,0.18,0.79,0.65,0.14,3.0,1.0,2.0,0.0,left,3.0,1.0,4.0,2.0,0.0,2.0
2025-10-10 12:38:33,60fd4fbf1a3f1446d576e5d4,c,10,experiment,34,12,1,exclusive,y,12b,12a,12a,639.0,1776.0,642.0,774.0,732.0,973.0,830.0,,600.0,right,False,A,right,0.0,1.0,0.54,0.0,0.54,0.0,1.0,0.0,0.0,right,0.0,1.0,1.0,0.0,0.0,0.0
2025-10-10 12:38:33,60fd4fbf1a3f1446d576e5d4,c,20,experiment,39,13,1,contrastive,n,13a,13b,13b,745.0,710.0,803.0,1027.0,869.0,1042.0,828.0,,807.0,right,False,B,left,0.87,0.13,0.8,0.7,0.1,2.0,1.0,2.0,0.0,left,2.0,1.0,3.0,1.0,0.0,1.0
2025-10-10 12:38:33,60fd4fbf1a3f1446d576e5d4,c,29,experiment,41,14,1,focus,n,14a,14b,,484.0,390.0,370.0,534.0,459.0,578.0,641.0,,2969.0,left,False,A,right,0.48,0.52,2.88,1.39,1.49,2.0,3.0,3.0,0.0,right,2.0,3.0,5.0,1.0,2.0,3.0
2025-10-10 12:38:33,60fd4fbf1a3f1446d576e5d4,c,15,experiment,43,15,1,exclusive,n,15a,15b,15a,931.0,1031.0,512.0,652.0,522.0,704.0,640.0,,861.0,left,False,A,left,1.0,0.0,0.77,0.77,0.0,2.0,0.0,0.0,0.0,left,2.0,0.0,2.0,1.0,0.0,1.0
2025-10-10 12:38:33,60fd4fbf1a3f1446d576e5d4,c,25,experiment,48,16,1,contrastive,y,16b,16a,16b,643.0,459.0,483.0,503.0,453.0,371.0,375.0,,1030.0,left,False,B,left,1.0,0.0,1.03,1.03,0.0,1.0,0.0,0.0,0.0,left,1.0,0.0,1.0,0.0,0.0,0.0
2025-10-10 12:38:33,60fd4fbf1a3f1446d576e5d4,c,24,experiment,50,17,1,focus,y,17b,17a,,591.0,1434.0,1310.0,1520.0,841.0,867.0,1443.0,,1163.0,right,False,A,right,0.0,1.0,0.91,0.0,0.91,0.0,1.0,0.0,0.0,right,0.0,1.0,1.0,0.0,0.0,0.0
2025-10-10 12:38:33,60fd4fbf1a3f1446d576e5d4,c,38,experiment,52,18,1,exclusive,y,18b,18a,18a,524.0,972.0,1020.0,582.0,422.0,481.0,774.0,,1056.0,right,False,A,right,0.33,0.67,1.04,0.34,0.7,1.0,1.0,1.0,0.0,left,1.0,1.0,2.0,0.0,0.0,0.0
2025-09-22 17:12:07,6108da57e362f96a3ee32a88,b,34,experiment,2,1,1,focus,y,1b,1a,,252.0,449.0,329.0,234.0,349.0,271.0,329.0,,439.0,right,False,A,right,0.0,1.0,0.38,0.0,0.38,0.0,1.0,0.0,0.0,right,0.0,1.0,1.0,0.0,0.0,0.0
2025-09-22 17:12:07,6108da57e362f96a3ee32a88,b,26,experiment,4,2,1,exclusive,y,2b,2a,2a,363.0,435.0,466.0,354.0,417.0,398.0,384.0,,765.0,right,False,A,right,0.4,0.6,0.79,0.32,0.47,1.0,1.0,1.0,0.0,left,1.0,1.0,2.0,0.0,0.0,0.0
2025-09-22 17:12:07,6108da57e362f96a3ee32a88,b,49,experiment,9,3,1,contrastive,n,3a,3b,3b,249.0,323.0,245.0,400.0,332.0,273.0,297.0,,546.0,right,False,B,right,0.0,1.0,0.53,0.0,0.53,0.0,1.0,0.0,0.0,right,0.0,1.0,1.0,0.0,0.0,0.0
2025-09-22 17:12:07,6108da57e362f96a3ee32a88,b,25,experiment,11,4,1,focus,n,4a,4b,,274.0,608.0,343.0,336.0,305.0,326.0,279.0,,515.0,left,False,A,left,1.0,0.0,0.48,0.48,0.0,1.0,0.0,0.0,0.0,left,1.0,0.0,1.0,0.0,0.0,0.0
2025-09-22 17:12:07,6108da57e362f96a3ee32a88,b,13,experiment,13,5,1,exclusive,n,5a,5b,5a,401.0,440.0,441.0,423.0,394.0,379.0,406.0,,1747.0,left,False,A,left,0.63,0.37,1.75,1.11,0.64,2.0,2.0,3.0,0.0,left,2.0,2.0,4.0,1.0,1.0,2.0
2025-09-22 17:12:07,6108da57e362f96a3ee32a88,b,15,experiment,18,6,1,contrastive,y,6b,6a,6b,418.0,333.0,304.0,330.0,336.0,569.0,331.0,,1111.0,left,False,B,left,1.0,0.0,1.03,1.03,0.0,2.0,0.0,0.0,0.0,left,2.0,0.0,2.0,1.0,0.0,1.0
2025-09-22 17:12:07,6108da57e362f96a3ee32a88,b,37,experiment,20,7,1,focus,y,7b,7a,,323.0,297.0,252.0,261.0,269.0,264.0,269.0,,687.0,right,False,A,right,0.0,1.0,0.59,0.0,0.59,0.0,1.0,0.0,0.0,right,0.0,1.0,1.0,0.0,0.0,0.0
2025-09-22 17:12:07,6108da57e362f96a3ee32a88,b,17,experiment,22,8,1,exclusive,y,8b,8a,8a,403.0,449.0,372.0,342.0,339.0,364.0,346.0,,544.0,right,False,A,right,0.0,1.0,0.5,0.0,0.5,0.0,1.0,0.0,0.0,right,0.0,1.0,1.0,0.0,0.0,0.0
2025-09-22 17:12:07,6108da57e362f96a3ee32a88,b,12,experiment,27,9,1,contrastive,n,9a,9b,9b,425.0,377.0,350.0,414.0,394.0,356.0,366.0,,2782.0,right,False,B,right,0.37,0.63,2.59,0.96,1.63,3.0,3.0,5.0,0.0,left,3.0,3.0,6.0,2.0,2.0,4.0
2025-09-22 17:12:07,6108da57e362f96a3ee32a88,b,21,experiment,29,10,1,focus,n,10a,10b,,322.0,268.0,1067.0,407.0,375.0,403.0,419.0,,1044.0,left,False,A,left,1.0,0.0,0.92,0.92,0.0,2.0,0.0,0.0,0.0,left,2.0,0.0,2.0,1.0,0.0,1.0
2025-09-22 17:12:07,6108da57e362f96a3ee32a88,b,39,experiment,31,11,1,exclusive,n,11a,11b,11a,283.0,294.0,351.0,287.0,252.0,265.0,284.0,,1643.0,left,False,A,left,1.0,0.0,1.5,1.5,0.0,2.0,0.0,0.0,0.0,left,2.0,0.0,2.0,1.0,0.0,1.0
2025-09-22 17:12:07,6108da57e362f96a3ee32a88,b,41,experiment,36,12,1,contrastive,y,12b,12a,12b,276.0,1084.0,451.0,398.0,436.0,398.0,342.0,,491.0,left,False,B,left,1.0,0.0,0.47,0.47,0.0,1.0,0.0,0.0,0.0,left,1.0,0.0,1.0,0.0,0.0,0.0
2025-09-22 17:12:07,6108da57e362f96a3ee32a88,b,14,experiment,38,13,1,focus,y,13b,13a,,371.0,401.0,364.0,379.0,371.0,393.0,534.0,,965.0,right,False,A,left,0.57,0.43,0.89,0.5,0.38,1.0,1.0,1.0,0.0,left,1.0,1.0,2.0,0.0,0.0,0.0
2025-09-22 17:12:07,6108da57e362f96a3ee32a88,b,29,experiment,40,14,1,exclusive,y,14b,14a,14a,210.0,380.0,348.0,263.0,326.0,423.0,287.0,,1101.0,right,False,A,right,0.5,0.5,1.07,0.53,0.54,1.0,1.0,1.0,0.0,left,1.0,1.0,2.0,0.0,0.0,0.0
2025-09-22 17:12:07,6108da57e362f96a3ee32a88,b,46,experiment,45,15,1,contrastive,n,15a,15b,15b,528.0,468.0,558.0,510.0,336.0,348.0,315.0,,883.0,right,False,B,right,0.0,1.0,0.88,0.0,0.88,0.0,1.0,0.0,0.0,right,0.0,1.0,1.0,0.0,0.0,0.0
2025-09-22 17:12:07,6108da57e362f96a3ee32a88,b,18,experiment,47,16,1,focus,n,16a,16b,,340.0,359.0,298.0,293.0,314.0,332.0,348.0,,988.0,left,False,A,left,0.67,0.33,1.0,0.67,0.33,1.0,2.0,1.0,0.0,right,1.0,2.0,3.0,0.0,1.0,1.0
2025-09-22 17:12:07,6108da57e362f96a3ee32a88,b,23,experiment,49,17,1,exclusive,n,17a,17b,17a,368.0,349.0,285.0,551.0,381.0,332.0,387.0,,2484.0,left,False,A,left,0.56,0.44,2.41,1.35,1.06,1.0,1.0,1.0,0.0,right,1.0,1.0,2.0,0.0,0.0,0.0
2025-09-22 17:12:07,6108da57e362f96a3ee32a88,b,43,experiment,54,18,1,contrastive,y,18b,18a,18b,450.0,348.0,322.0,301.0,311.0,284.0,304.0,,526.0,left,False,B,left,1.0,0.0,0.52,0.52,0.0,1.0,0.0,0.0,0.0,left,1.0,0.0,1.0,0.0,0.0,0.0
2025-09-26 10:29:40,6108da57e362f96a3ee32a88_2,c,33,experiment,3,1,1,contrastive,n,1a,1b,1b,478.0,243.0,272.0,367.0,270.0,340.0,351.0,,515.0,right,False,B,right,0.0,1.0,0.4,0.0,0.4,0.0,1.0,0.0,0.0,right,0.0,1.0,1.0,0.0,0.0,0.0
2025-09-26 10:29:40,6108da57e362f96a3ee32a88_2,c,36,experiment,5,2,1,focus,n,2a,2b,,556.0,206.0,263.0,293.0,303.0,564.0,350.0,,480.0,left,False,A,left,1.0,0.0,0.43,0.43,0.0,2.0,0.0,0.0,0.0,left,2.0,0.0,2.0,1.0,0.0,1.0
2025-09-26 10:29:40,6108da57e362f96a3ee32a88_2,c,34,experiment,7,3,1,exclusive,n,3a,3b,3a,349.0,271.0,214.0,349.0,374.0,677.0,448.0,,786.0,left,False,A,left,1.0,0.0,0.5,0.5,0.0,1.0,0.0,0.0,0.0,left,1.0,0.0,1.0,0.0,0.0,0.0
2025-09-26 10:29:40,6108da57e362f96a3ee32a88_2,c,47,experiment,12,4,1,contrastive,y,4b,4a,4b,457.0,178.0,337.0,404.0,411.0,369.0,381.0,,544.0,left,False,B,right,0.19,0.81,0.23,0.04,0.18,1.0,1.0,1.0,0.0,right,1.0,1.0,2.0,0.0,0.0,0.0
2025-09-26 10:29:40,6108da57e362f96a3ee32a88_2,c,27,experiment,14,5,1,focus,y,5b,5a,,346.0,321.0,332.0,315.0,327.0,321.0,347.0,,799.0,right,False,A,right,0.0,1.0,0.83,0.0,0.83,0.0,1.0,0.0,0.0,right,0.0,1.0,1.0,0.0,0.0,0.0
2025-09-26 10:29:40,6108da57e362f96a3ee32a88_2,c,17,experiment,16,6,1,exclusive,y,6b,6a,6a,444.0,300.0,335.0,369.0,351.0,394.0,389.0,,693.0,right,False,A,right,0.44,0.56,0.68,0.3,0.38,1.0,1.0,1.0,0.0,left,1.0,1.0,2.0,0.0,0.0,0.0
2025-09-26 10:29:40,6108da57e362f96a3ee32a88_2,c,49,experiment,21,7,1,contrastive,n,7a,7b,7b,277.0,279.0,311.0,317.0,301.0,419.0,363.0,,505.0,right,False,B,right,0.23,0.77,0.5,0.12,0.39,1.0,2.0,2.0,0.0,right,1.0,2.0,3.0,0.0,1.0,1.0
2025-09-26 10:29:40,6108da57e362f96a3ee32a88_2,c,12,experiment,23,8,1,focus,n,8a,8b,,606.0,415.0,492.0,373.0,433.0,398.0,449.0,,1020.0,left,False,A,left,1.0,0.0,1.02,1.02,0.0,1.0,0.0,0.0,0.0,left,1.0,0.0,1.0,0.0,0.0,0.0
2025-09-26 10:29:40,6108da57e362f96a3ee32a88_2,c,40,experiment,25,9,1,exclusive,n,9a,9b,9a,280.0,252.0,257.0,299.0,292.0,325.0,325.0,,666.0,left,False,A,left,1.0,0.0,0.52,0.52,0.0,1.0,0.0,0.0,0.0,left,1.0,0.0,1.0,0.0,0.0,0.0
2025-09-26 10:29:40,6108da57e362f96a3ee32a88_2,c,43,experiment,30,10,1,contrastive,y,10b,10a,10b,366.0,299.0,364.0,287.0,315.0,324.0,467.0,,609.0,left,False,B,right,0.5,0.5,0.6,0.3,0.3,1.0,1.0,1.0,0.0,right,1.0,1.0,2.0,0.0,0.0,0.0
2025-09-26 10:29:40,6108da57e362f96a3ee32a88_2,c,22,experiment,32,11,1,focus,y,11b,11a,,420.0,310.0,301.0,355.0,364.0,446.0,640.0,,826.0,right,False,A,left,0.62,0.38,0.65,0.4,0.25,1.0,1.0,1.0,0.0,left,1.0,1.0,2.0,0.0,0.0,0.0
2025-09-26 10:29:40,6108da57e362f96a3ee32a88_2,c,10,experiment,34,12,1,exclusive,y,12b,12a,12a,489.0,400.0,494.0,388.0,469.0,710.0,596.0,,2051.0,right,False,A,right,0.27,0.73,2.1,0.57,1.53,1.0,2.0,2.0,0.0,right,1.0,2.0,3.0,0.0,1.0,1.0
2025-09-26 10:29:40,6108da57e362f96a3ee32a88_2,c,20,experiment,39,13,1,contrastive,n,13a,13b,13b,295.0,306.0,325.0,343.0,375.0,386.0,919.0,,1343.0,left,True,A,left,0.55,0.45,1.22,0.68,0.55,2.0,1.0,2.0,0.0,left,2.0,1.0,3.0,1.0,0.0,1.0
2025-09-26 10:29:40,6108da57e362f96a3ee32a88_2,c,29,experiment,41,14,1,focus,n,14a,14b,,321.0,266.0,368.0,216.0,420.0,331.0,598.0,,3033.0,left,False,A,right,0.36,0.64,2.99,1.08,1.9,3.0,2.0,4.0,0.0,left,3.0,2.0,5.0,2.0,1.0,3.0
2025-09-26 10:29:40,6108da57e362f96a3ee32a88_2,c,15,experiment,43,15,1,exclusive,n,15a,15b,15a,516.0,384.0,300.0,300.0,373.0,443.0,387.0,,634.0,left,False,A,left,1.0,0.0,0.54,0.54,0.0,2.0,0.0,0.0,0.0,left,2.0,0.0,2.0,1.0,0.0,1.0
2025-09-26 10:29:40,6108da57e362f96a3ee32a88_2,c,25,experiment,48,16,1,contrastive,y,16b,16a,16b,293.0,320.0,315.0,321.0,312.0,364.0,587.0,,2800.0,left,False,B,right,0.44,0.56,2.75,1.2,1.55,3.0,2.0,4.0,0.0,left,3.0,2.0,5.0,2.0,1.0,3.0
2025-09-26 10:29:40,6108da57e362f96a3ee32a88_2,c,24,experiment,50,17,1,focus,y,17b,17a,,337.0,382.0,306.0,366.0,382.0,565.0,453.0,,1276.0,right,False,A,right,0.34,0.66,1.06,0.35,0.7,2.0,1.0,2.0,0.0,left,2.0,1.0,3.0,1.0,0.0,1.0
2025-09-26 10:29:40,6108da57e362f96a3ee32a88_2,c,38,experiment,52,18,1,exclusive,y,18b,18a,18a,317.0,271.0,277.0,322.0,353.0,314.0,350.0,,699.0,left,True,B,left,1.0,0.0,0.69,0.69,0.0,2.0,0.0,0.0,0.0,left,2.0,0.0,2.0,1.0,0.0,1.0
2025-10-18 13:04:05,61242dd5be1a06b174975a1f,b,34,experiment,2,1,1,focus,y,1b,1a,,601.0,470.0,416.0,616.0,586.0,436.0,371.0,,842.0,right,False,A,left,1.0,0.0,0.73,0.73,0.0,2.0,0.0,0.0,0.0,left,2.0,0.0,2.0,1.0,0.0,1.0
2025-10-18 13:04:05,61242dd5be1a06b174975a1f,b,26,experiment,4,2,1,exclusive,y,2b,2a,2a,479.0,476.0,488.0,588.0,497.0,586.0,1028.0,,938.0,right,False,A,right,0.0,1.0,0.66,0.0,0.66,0.0,2.0,0.0,0.0,right,0.0,2.0,2.0,0.0,1.0,1.0
2025-10-18 13:04:05,61242dd5be1a06b174975a1f,b,49,experiment,9,3,1,contrastive,n,3a,3b,3b,510.0,441.0,470.0,451.0,490.0,801.0,935.0,,1654.0,right,False,B,right,0.0,1.0,1.6,0.0,1.6,0.0,1.0,0.0,0.0,right,0.0,1.0,1.0,0.0,0.0,0.0
2025-10-18 13:04:05,61242dd5be1a06b174975a1f,b,25,experiment,11,4,1,focus,n,4a,4b,,411.0,597.0,410.0,624.0,413.0,692.0,335.0,,1190.0,left,False,A,left,0.96,0.04,1.01,0.97,0.04,2.0,1.0,1.0,0.0,left,2.0,1.0,3.0,1.0,0.0,1.0
2025-10-18 13:04:05,61242dd5be1a06b174975a1f,b,13,experiment,13,5,1,exclusive,n,5a,5b,5a,475.0,762.0,639.0,588.0,501.0,606.0,667.0,,7110.0,right,True,B,right,0.39,0.61,6.88,2.71,4.17,6.0,8.0,11.0,0.0,left,6.0,8.0,14.0,5.0,7.0,12.0
2025-10-18 13:04:05,61242dd5be1a06b174975a1f,b,15,experiment,18,6,1,contrastive,y,6b,6a,6b,653.0,614.0,678.0,661.0,601.0,686.0,547.0,,1355.0,right,True,A,right,0.0,1.0,1.34,0.0,1.34,0.0,1.0,0.0,0.0,right,0.0,1.0,1.0,0.0,0.0,0.0
2025-10-18 13:04:05,61242dd5be1a06b174975a1f,b,37,experiment,20,7,1,focus,y,7b,7a,,435.0,434.0,423.0,452.0,395.0,430.0,1795.0,,3109.0,right,False,A,left,0.61,0.39,2.56,1.56,1.0,1.0,3.0,1.0,0.0,left,1.0,3.0,4.0,0.0,2.0,2.0
2025-10-18 13:04:05,61242dd5be1a06b174975a1f,b,17,experiment,22,8,1,exclusive,y,8b,8a,8a,719.0,823.0,612.0,640.0,556.0,585.0,679.0,,1083.0,right,False,A,right,0.2,0.8,1.0,0.2,0.8,1.0,3.0,2.0,0.0,right,1.0,3.0,4.0,0.0,2.0,2.0
2025-10-18 13:04:05,61242dd5be1a06b174975a1f,b,12,experiment,27,9,1,contrastive,n,9a,9b,9b,700.0,759.0,792.0,687.0,571.0,619.0,676.0,,1434.0,left,True,A,right,0.45,0.55,1.07,0.48,0.59,2.0,3.0,1.0,0.0,right,2.0,3.0,5.0,1.0,2.0,3.0
2025-10-18 13:04:05,61242dd5be1a06b174975a1f,b,21,experiment,29,10,1,focus,n,10a,10b,,593.0,1231.0,703.0,486.0,429.0,646.0,506.0,,1261.0,left,False,A,left,1.0,0.0,1.25,1.25,0.0,1.0,0.0,0.0,0.0,left,1.0,0.0,1.0,0.0,0.0,0.0
2025-10-18 13:04:05,61242dd5be1a06b174975a1f,b,39,experiment,31,11,1,exclusive,n,11a,11b,11a,480.0,406.0,377.0,931.0,367.0,597.0,570.0,,1184.0,left,False,A,left,1.0,0.0,1.16,1.16,0.0,1.0,0.0,0.0,0.0,left,1.0,0.0,1.0,0.0,0.0,0.0
2025-10-18 13:04:05,61242dd5be1a06b174975a1f,b,41,experiment,36,12,1,contrastive,y,12b,12a,12b,811.0,613.0,517.0,536.0,462.0,742.0,610.0,,3537.0,left,False,B,left,0.68,0.32,3.25,2.2,1.05,3.0,2.0,4.0,0.0,left,3.0,2.0,5.0,2.0,1.0,3.0
2025-10-18 13:04:05,61242dd5be1a06b174975a1f,b,14,experiment,38,13,1,focus,y,13b,13a,,527.0,530.0,498.0,586.0,565.0,792.0,559.0,,1407.0,right,False,A,right,0.0,1.0,1.39,0.0,1.39,0.0,1.0,0.0,0.0,right,0.0,1.0,1.0,0.0,0.0,0.0
2025-10-18 13:04:05,61242dd5be1a06b174975a1f,b,29,experiment,40,14,1,exclusive,y,14b,14a,14a,435.0,506.0,488.0,551.0,463.0,647.0,1253.0,,2104.0,right,False,A,left,0.55,0.45,2.03,1.11,0.92,3.0,2.0,4.0,0.0,left,3.0,2.0,5.0,2.0,1.0,3.0
2025-10-18 13:04:05,61242dd5be1a06b174975a1f,b,46,experiment,45,15,1,contrastive,n,15a,15b,15b,396.0,483.0,475.0,457.0,449.0,767.0,956.0,,2713.0,left,True,A,left,0.54,0.46,2.54,1.37,1.17,3.0,3.0,3.0,0.0,right,3.0,3.0,6.0,2.0,2.0,4.0
2025-10-18 13:04:05,61242dd5be1a06b174975a1f,b,18,experiment,47,16,1,focus,n,16a,16b,,527.0,621.0,574.0,541.0,517.0,692.0,1191.0,,1621.0,left,False,A,left,0.79,0.21,1.36,1.07,0.29,4.0,2.0,3.0,0.0,right,4.0,2.0,6.0,3.0,1.0,4.0
2025-10-18 13:04:05,61242dd5be1a06b174975a1f,b,23,experiment,49,17,1,exclusive,n,17a,17b,17a,419.0,524.0,465.0,712.0,492.0,743.0,977.0,,1240.0,left,False,A,left,0.97,0.03,1.21,1.17,0.04,1.0,1.0,1.0,0.0,left,1.0,1.0,2.0,0.0,0.0,0.0
2025-10-18 13:04:05,61242dd5be1a06b174975a1f,b,43,experiment,54,18,1,contrastive,y,18b,18a,18b,401.0,366.0,479.0,369.0,366.0,1108.0,1072.0,,1424.0,left,False,B,left,0.85,0.15,1.42,1.2,0.22,1.0,1.0,1.0,0.0,right,1.0,1.0,2.0,0.0,0.0,0.0
2025-09-24 17:17:21,6151b07ac0d164fdd7e53100,a,36,experiment,1,1,1,exclusive,n,1a,1b,1a,233.0,210.0,226.0,243.0,390.0,238.0,199.0,,1628.0,left,False,A,left,0.91,0.09,1.43,1.3,0.13,1.0,1.0,1.0,0.0,right,1.0,1.0,2.0,0.0,0.0,0.0
2025-09-24 17:17:21,6151b07ac0d164fdd7e53100,a,50,experiment,6,2,1,contrastive,y,2b,2a,2b,285.0,188.0,242.0,329.0,249.0,256.0,245.0,,1621.0,left,False,B,left,0.79,0.21,1.49,1.18,0.31,1.0,1.0,1.0,0.0,right,1.0,1.0,2.0,0.0,0.0,0.0
2025-09-24 17:17:21,6151b07ac0d164fdd7e53100,a,18,experiment,8,3,1,focus,y,3b,3a,,334.0,241.0,249.0,258.0,226.0,234.0,185.0,,2432.0,right,False,A,right,0.18,0.82,2.18,0.38,1.79,1.0,2.0,2.0,0.0,right,1.0,2.0,3.0,0.0,1.0,1.0
2025-09-24 17:17:21,6151b07ac0d164fdd7e53100,a,43,experiment,10,4,1,exclusive,y,4b,4a,4a,261.0,196.0,214.0,193.0,236.0,186.0,241.0,,1313.0,right,False,A,right,0.0,1.0,1.38,0.0,1.38,0.0,1.0,0.0,0.0,right,0.0,1.0,1.0,0.0,0.0,0.0
2025-09-24 17:17:21,6151b07ac0d164fdd7e53100,a,10,experiment,15,5,1,contrastive,n,5a,5b,5b,412.0,345.0,345.0,298.0,354.0,276.0,273.0,,1619.0,left,True,A,left,1.0,0.0,1.48,1.48,0.0,1.0,0.0,0.0,0.0,left,1.0,0.0,1.0,0.0,0.0,0.0
2025-09-24 17:17:21,6151b07ac0d164fdd7e53100,a,13,experiment,17,6,1,focus,n,6a,6b,,216.0,447.0,203.0,203.0,217.0,684.0,286.0,,1357.0,left,False,A,left,0.75,0.25,1.29,0.97,0.32,2.0,2.0,3.0,0.0,left,2.0,2.0,4.0,1.0,1.0,2.0
2025-09-24 17:17:21,6151b07ac0d164fdd7e53100,a,49,experiment,19,7,1,exclusive,n,7a,7b,7a,1020.0,244.0,222.0,156.0,246.0,212.0,198.0,,1671.0,left,False,A,left,1.0,0.0,1.64,1.64,0.0,1.0,0.0,0.0,0.0,left,1.0,0.0,1.0,0.0,0.0,0.0
2025-09-24 17:17:21,6151b07ac0d164fdd7e53100,a,47,experiment,24,8,1,contrastive,y,8b,8a,8b,252.0,269.0,245.0,260.0,232.0,238.0,235.0,,1707.0,left,False,B,left,1.0,0.0,1.77,1.77,0.0,1.0,0.0,0.0,0.0,left,1.0,0.0,1.0,0.0,0.0,0.0
2025-09-24 17:17:21,6151b07ac0d164fdd7e53100,a,35,experiment,26,9,1,focus,y,9b,9a,,234.0,254.0,219.0,193.0,227.0,216.0,238.0,,1040.0,left,False,B,left,1.0,0.0,0.94,0.94,0.0,1.0,0.0,0.0,0.0,left,1.0,0.0,1.0,0.0,0.0,0.0
2025-09-24 17:17:21,6151b07ac0d164fdd7e53100,a,45,experiment,28,10,1,exclusive,y,10b,10a,10a,294.0,258.0,179.0,230.0,246.0,200.0,242.0,,1704.0,right,False,A,right,0.0,1.0,1.57,0.0,1.57,0.0,1.0,0.0,0.0,right,0.0,1.0,1.0,0.0,0.0,0.0
2025-09-24 17:17:21,6151b07ac0d164fdd7e53100,a,42,experiment,33,11,1,contrastive,n,11a,11b,11b,282.0,221.0,270.0,225.0,228.0,214.0,221.0,,1019.0,right,False,B,right,0.0,1.0,1.02,0.0,1.02,0.0,1.0,0.0,0.0,right,0.0,1.0,1.0,0.0,0.0,0.0
2025-09-24 17:17:21,6151b07ac0d164fdd7e53100,a,27,experiment,35,12,1,focus,n,12a,12b,,350.0,326.0,476.0,222.0,242.0,246.0,200.0,,1761.0,left,False,A,left,1.0,0.0,1.71,1.71,0.0,1.0,0.0,0.0,0.0,left,1.0,0.0,1.0,0.0,0.0,0.0
2025-09-24 17:17:21,6151b07ac0d164fdd7e53100,a,38,experiment,37,13,1,exclusive,n,13a,13b,13a,238.0,247.0,254.0,444.0,202.0,206.0,174.0,,2639.0,left,False,A,right,0.38,0.62,2.34,0.88,1.46,2.0,2.0,2.0,0.0,left,2.0,2.0,4.0,1.0,1.0,2.0
2025-09-24 17:17:21,6151b07ac0d164fdd7e53100,a,31,experiment,42,14,1,contrastive,y,14b,14a,14b,292.0,277.0,221.0,446.0,226.0,220.0,187.0,,6610.0,left,False,B,right,0.43,0.57,6.6,2.85,3.75,4.0,4.0,7.0,0.0,right,4.0,4.0,8.0,3.0,3.0,6.0
2025-09-24 17:17:21,6151b07ac0d164fdd7e53100,a,29,experiment,44,15,1,focus,y,15b,15a,,368.0,540.0,272.0,242.0,262.0,309.0,268.0,,2018.0,right,False,A,right,0.26,0.74,2.06,0.54,1.52,1.0,2.0,2.0,0.0,right,1.0,2.0,3.0,0.0,1.0,1.0
2025-09-24 17:17:21,6151b07ac0d164fdd7e53100,a,40,experiment,46,16,1,exclusive,y,16b,16a,16a,347.0,284.0,242.0,276.0,211.0,294.0,269.0,,1671.0,right,False,A,right,0.09,0.91,1.51,0.13,1.38,1.0,1.0,1.0,0.0,left,1.0,1.0,2.0,0.0,0.0,0.0
2025-09-24 17:17:21,6151b07ac0d164fdd7e53100,a,34,experiment,51,17,1,contrastive,n,17a,17b,17b,326.0,278.0,228.0,250.0,240.0,253.0,224.0,,2073.0,right,False,B,right,0.0,1.0,2.23,0.0,2.23,0.0,1.0,0.0,0.0,right,0.0,1.0,1.0,0.0,0.0,0.0
2025-09-24 17:17:21,6151b07ac0d164fdd7e53100,a,21,experiment,53,18,1,focus,n,18a,18b,,286.0,211.0,235.0,206.0,486.0,231.0,234.0,,2956.0,left,False,A,right,0.43,0.57,2.79,1.19,1.61,2.0,2.0,3.0,0.0,left,2.0,2.0,4.0,1.0,1.0,2.0
2025-09-26 07:57:52,61545727036ae019fdeea5df,b,34,experiment,2,1,1,focus,y,1b,1a,,500.0,430.0,374.0,368.0,372.0,417.0,407.0,,569.0,right,False,A,left,1.0,0.0,0.48,0.48,0.0,2.0,0.0,0.0,0.0,left,2.0,0.0,2.0,1.0,0.0,1.0
2025-09-26 07:57:52,61545727036ae019fdeea5df,b,26,experiment,4,2,1,exclusive,y,2b,2a,2a,434.0,475.0,387.0,467.0,456.0,471.0,471.0,,681.0,right,False,A,right,0.0,1.0,0.57,0.0,0.57,0.0,1.0,0.0,0.0,right,0.0,1.0,1.0,0.0,0.0,0.0
2025-09-26 07:57:52,61545727036ae019fdeea5df,b,49,experiment,9,3,1,contrastive,n,3a,3b,3b,524.0,536.0,511.0,400.0,364.0,603.0,550.0,,706.0,right,False,B,right,0.41,0.59,0.66,0.27,0.39,1.0,1.0,1.0,0.0,left,1.0,1.0,2.0,0.0,0.0,0.0
2025-09-26 07:57:52,61545727036ae019fdeea5df,b,25,experiment,11,4,1,focus,n,4a,4b,,464.0,719.0,389.0,515.0,443.0,538.0,393.0,,683.0,left,False,A,left,1.0,0.0,0.59,0.59,0.0,1.0,0.0,0.0,0.0,left,1.0,0.0,1.0,0.0,0.0,0.0
2025-09-26 07:57:52,61545727036ae019fdeea5df,b,13,experiment,13,5,1,exclusive,n,5a,5b,5a,580.0,673.0,508.0,649.0,464.0,609.0,501.0,,815.0,left,False,A,left,1.0,0.0,0.74,0.74,0.0,1.0,0.0,0.0,0.0,left,1.0,0.0,1.0,0.0,0.0,0.0
2025-09-26 07:57:52,61545727036ae019fdeea5df,b,15,experiment,18,6,1,contrastive,y,6b,6a,6b,730.0,492.0,627.0,514.0,502.0,493.0,446.0,,864.0,right,True,A,right,0.0,1.0,0.68,0.0,0.68,0.0,2.0,0.0,0.0,right,0.0,2.0,2.0,0.0,1.0,1.0
2025-09-26 07:57:52,61545727036ae019fdeea5df,b,37,experiment,20,7,1,focus,y,7b,7a,,442.0,379.0,404.0,421.0,420.0,391.0,384.0,,549.0,right,False,A,left,1.0,0.0,0.4,0.4,0.0,3.0,0.0,0.0,0.0,left,3.0,0.0,3.0,2.0,0.0,2.0
2025-09-26 07:57:52,61545727036ae019fdeea5df,b,17,experiment,22,8,1,exclusive,y,8b,8a,8a,561.0,516.0,462.0,423.0,431.0,495.0,821.0,,796.0,right,False,A,right,0.0,1.0,0.75,0.0,0.75,0.0,1.0,0.0,0.0,right,0.0,1.0,1.0,0.0,0.0,0.0
2025-09-26 07:57:52,61545727036ae019fdeea5df,b,12,experiment,27,9,1,contrastive,n,9a,9b,9b,681.0,583.0,514.0,543.0,561.0,548.0,544.0,,1115.0,left,True,A,left,1.0,0.0,1.01,1.01,0.0,2.0,0.0,0.0,0.0,left,2.0,0.0,2.0,1.0,0.0,1.0
2025-09-26 07:57:52,61545727036ae019fdeea5df,b,21,experiment,29,10,1,focus,n,10a,10b,,500.0,560.0,560.0,561.0,558.0,561.0,570.0,,764.0,left,False,A,left,1.0,0.0,0.62,0.62,0.0,1.0,0.0,0.0,0.0,left,1.0,0.0,1.0,0.0,0.0,0.0
2025-09-26 07:57:52,61545727036ae019fdeea5df,b,39,experiment,31,11,1,exclusive,n,11a,11b,11a,497.0,396.0,334.0,364.0,427.0,347.0,457.0,,650.0,left,False,A,left,0.51,0.49,0.55,0.28,0.27,2.0,1.0,2.0,0.0,left,2.0,1.0,3.0,1.0,0.0,1.0
2025-09-26 07:57:52,61545727036ae019fdeea5df,b,41,experiment,36,12,1,contrastive,y,12b,12a,12b,1240.0,467.0,418.0,505.0,430.0,374.0,474.0,,456.0,right,True,A,right,0.0,1.0,0.31,0.0,0.31,0.0,1.0,0.0,0.0,right,0.0,1.0,1.0,0.0,0.0,0.0
2025-09-26 07:57:52,61545727036ae019fdeea5df,b,14,experiment,38,13,1,focus,y,13b,13a,,538.0,537.0,441.0,473.0,458.0,523.0,793.0,,755.0,right,False,A,right,0.0,1.0,0.72,0.0,0.72,0.0,2.0,0.0,0.0,right,0.0,2.0,2.0,0.0,1.0,1.0
2025-09-26 07:57:52,61545727036ae019fdeea5df,b,29,experiment,40,14,1,exclusive,y,14b,14a,14a,488.0,421.0,413.0,435.0,440.0,449.0,750.0,,1114.0,right,False,A,right,0.2,0.8,1.09,0.22,0.87,1.0,1.0,1.0,0.0,right,1.0,1.0,2.0,0.0,0.0,0.0
2025-09-26 07:57:52,61545727036ae019fdeea5df,b,46,experiment,45,15,1,contrastive,n,15a,15b,15b,437.0,418.0,569.0,539.0,526.0,524.0,1581.0,,625.0,left,True,A,right,0.4,0.6,0.44,0.18,0.27,1.0,1.0,1.0,0.0,left,1.0,1.0,2.0,0.0,0.0,0.0
2025-09-26 07:57:52,61545727036ae019fdeea5df,b,18,experiment,47,16,1,focus,n,16a,16b,,452.0,502.0,475.0,484.0,500.0,500.0,489.0,,788.0,left,False,A,left,1.0,0.0,0.77,0.77,0.0,1.0,0.0,0.0,0.0,left,1.0,0.0,1.0,0.0,0.0,0.0
2025-09-26 07:57:52,61545727036ae019fdeea5df,b,23,experiment,49,17,1,exclusive,n,17a,17b,17a,508.0,477.0,415.0,600.0,544.0,457.0,434.0,,669.0,left,False,A,left,0.62,0.38,0.68,0.42,0.26,2.0,2.0,3.0,0.0,right,2.0,2.0,4.0,1.0,1.0,2.0
2025-09-26 07:57:52,61545727036ae019fdeea5df,b,43,experiment,54,18,1,contrastive,y,18b,18a,18b,525.0,499.0,410.0,354.0,416.0,384.0,602.0,,564.0,right,True,A,left,0.52,0.48,0.45,0.23,0.21,1.0,2.0,2.0,0.0,right,1.0,2.0,3.0,0.0,1.0,1.0
2025-09-25 09:33:24,6154d933a58bf7bcd9e81fed,b,34,experiment,2,1,1,focus,y,1b,1a,,316.0,314.0,282.0,245.0,401.0,427.0,323.0,,640.0,right,False,A,right,0.0,1.0,0.61,0.0,0.61,0.0,1.0,0.0,0.0,right,0.0,1.0,1.0,0.0,0.0,0.0
2025-09-25 09:33:24,6154d933a58bf7bcd9e81fed,b,26,experiment,4,2,1,exclusive,y,2b,2a,2a,1061.0,772.0,552.0,477.0,419.0,422.0,378.0,,631.0,right,False,A,right,0.49,0.51,0.38,0.19,0.19,1.0,1.0,1.0,0.0,left,1.0,1.0,2.0,0.0,0.0,0.0
2025-09-25 09:33:24,6154d933a58bf7bcd9e81fed,b,49,experiment,9,3,1,contrastive,n,3a,3b,3b,356.0,392.0,301.0,297.0,316.0,337.0,304.0,,673.0,right,False,B,right,0.0,1.0,0.64,0.0,0.64,0.0,1.0,0.0,0.0,right,0.0,1.0,1.0,0.0,0.0,0.0
2025-09-25 09:33:24,6154d933a58bf7bcd9e81fed,b,25,experiment,11,4,1,focus,n,4a,4b,,461.0,485.0,401.0,414.0,390.0,417.0,692.0,,1012.0,left,False,A,left,0.63,0.37,1.02,0.64,0.38,2.0,2.0,3.0,0.0,left,2.0,2.0,4.0,1.0,1.0,2.0
2025-09-25 09:33:24,6154d933a58bf7bcd9e81fed,b,13,experiment,13,5,1,exclusive,n,5a,5b,5a,476.0,509.0,432.0,371.0,336.0,351.0,400.0,,538.0,left,False,A,right,0.2,0.8,0.56,0.12,0.45,1.0,1.0,1.0,0.0,left,1.0,1.0,2.0,0.0,0.0,0.0
2025-09-25 09:33:24,6154d933a58bf7bcd9e81fed,b,15,experiment,18,6,1,contrastive,y,6b,6a,6b,382.0,400.0,318.0,331.0,317.0,346.0,331.0,,760.0,left,False,B,left,0.8,0.2,0.57,0.46,0.11,1.0,1.0,1.0,0.0,right,1.0,1.0,2.0,0.0,0.0,0.0
